%time,field.header.seq,field.header.stamp,field.header.frame_id,field.orientation.x,field.orientation.y,field.orientation.z,field.orientation.w,field.orientation_covariance0,field.orientation_covariance1,field.orientation_covariance2,field.orientation_covariance3,field.orientation_covariance4,field.orientation_covariance5,field.orientation_covariance6,field.orientation_covariance7,field.orientation_covariance8,field.angular_velocity.x,field.angular_velocity.y,field.angular_velocity.z,field.angular_velocity_covariance0,field.angular_velocity_covariance1,field.angular_velocity_covariance2,field.angular_velocity_covariance3,field.angular_velocity_covariance4,field.angular_velocity_covariance5,field.angular_velocity_covariance6,field.angular_velocity_covariance7,field.angular_velocity_covariance8,field.linear_acceleration.x,field.linear_acceleration.y,field.linear_acceleration.z,field.linear_acceleration_covariance0,field.linear_acceleration_covariance1,field.linear_acceleration_covariance2,field.linear_acceleration_covariance3,field.linear_acceleration_covariance4,field.linear_acceleration_covariance5,field.linear_acceleration_covariance6,field.linear_acceleration_covariance7,field.linear_acceleration_covariance8
1490728682421845912,21029,1490728682421845912,,-0.0355224609375,0.0113525390625,-0.433776855469,0.900207519531,0.0,0.0,0.0,0.0,0.0,0.0,0.0,0.0,0.0,-3.87851111111e-05,-0.000116355333333,3.87851111111e-05,0.0,0.0,0.0,0.0,0.0,0.0,0.0,0.0,0.0,1.29,-0.16,0.18,0.0,0.0,0.0,0.0,0.0,0.0,0.0,0.0,0.0
1490728682457513093,21030,1490728682457513093,,-0.0354614257812,0.0113525390625,-0.433776855469,0.900207519531,0.0,0.0,0.0,0.0,0.0,0.0,0.0,0.0,0.0,0.002617995,0.000193925555556,-3.87851111111e-05,0.0,0.0,0.0,0.0,0.0,0.0,0.0,0.0,0.0,-0.13,0.0,0.22,0.0,0.0,0.0,0.0,0.0,0.0,0.0,0.0,0.0
1490728682503073930,21031,1490728682503073930,,-0.0354614257812,0.0112915039062,-0.433776855469,0.900268554688,0.0,0.0,0.0,0.0,0.0,0.0,0.0,0.0,0.0,-0.000174533,-0.000252103222222,1.93925555556e-05,0.0,0.0,0.0,0.0,0.0,0.0,0.0,0.0,0.0,1.33,-0.16,0.09,0.0,0.0,0.0,0.0,0.0,0.0,0.0,0.0,0.0
1490728682549422979,21032,1490728682549422979,,-0.0355224609375,0.01123046875,-0.433776855469,0.900268554688,0.0,0.0,0.0,0.0,0.0,0.0,0.0,0.0,0.0,0.00259860244444,0.000213318111111,-0.00255981733333,0.0,0.0,0.0,0.0,0.0,0.0,0.0,0.0,0.0,-0.15,-0.04,0.18,0.0,0.0,0.0,0.0,0.0,0.0,0.0,0.0,0.0
1490728682587852001,21033,1490728682587852001,,-0.0353393554688,0.01123046875,-0.433776855469,0.900268554688,0.0,0.0,0.0,0.0,0.0,0.0,0.0,0.0,0.0,0.002617995,-0.000116355333333,-7.75702222222e-05,0.0,0.0,0.0,0.0,0.0,0.0,0.0,0.0,0.0,-0.05,0.11,0.25,0.0,0.0,0.0,0.0,0.0,0.0,0.0,0.0,0.0
1490728682611752033,21034,1490728682611752033,,-0.035400390625,0.0111694335938,-0.433776855469,0.900268554688,0.0,0.0,0.0,0.0,0.0,0.0,0.0,0.0,0.0,-0.000174533,-0.000232710666667,3.87851111111e-05,0.0,0.0,0.0,0.0,0.0,0.0,0.0,0.0,0.0,1.3,-0.22,0.09,0.0,0.0,0.0,0.0,0.0,0.0,0.0,0.0,0.0
1490728682648519992,21035,1490728682648519992,,-0.0355224609375,0.01123046875,-0.433776855469,0.900268554688,0.0,0.0,0.0,0.0,0.0,0.0,0.0,0.0,0.0,0.00257920988889,0.000135747888889,0.0,0.0,0.0,0.0,0.0,0.0,0.0,0.0,0.0,0.0,-0.07,-0.2,0.11,0.0,0.0,0.0,0.0,0.0,0.0,0.0,0.0,0.0
1490728682675061941,21036,1490728682675061941,,-0.0353393554688,0.0111694335938,-0.433776855469,0.900268554688,0.0,0.0,0.0,0.0,0.0,0.0,0.0,0.0,0.0,0.00281192055556,-3.87851111111e-05,-1.93925555556e-05,0.0,0.0,0.0,0.0,0.0,0.0,0.0,0.0,0.0,-0.03,0.13,0.26,0.0,0.0,0.0,0.0,0.0,0.0,0.0,0.0,0.0
1490728682712657928,21037,1490728682712657928,,-0.0352783203125,0.0111083984375,-0.433776855469,0.900268554688,0.0,0.0,0.0,0.0,0.0,0.0,0.0,0.0,0.0,-0.000310280888889,-7.75702222222e-05,0.0,0.0,0.0,0.0,0.0,0.0,0.0,0.0,0.0,0.0,1.28,-0.14,0.09,0.0,0.0,0.0,0.0,0.0,0.0,0.0,0.0,0.0
1490728682738564968,21038,1490728682738564968,,-0.035400390625,0.0111694335938,-0.433776855469,0.900268554688,0.0,0.0,0.0,0.0,0.0,0.0,0.0,0.0,0.0,-0.000116355333333,7.75702222222e-05,-1.93925555556e-05,0.0,0.0,0.0,0.0,0.0,0.0,0.0,0.0,0.0,-0.07,-0.19,0.12,0.0,0.0,0.0,0.0,0.0,0.0,0.0,0.0,0.0
1490728682766299962,21039,1490728682766299962,,-0.0352783203125,0.0111083984375,-0.433776855469,0.900268554688,0.0,0.0,0.0,0.0,0.0,0.0,0.0,0.0,0.0,0.00273435033333,7.75702222222e-05,-1.93925555556e-05,0.0,0.0,0.0,0.0,0.0,0.0,0.0,0.0,0.0,-0.06,0.06,0.23,0.0,0.0,0.0,0.0,0.0,0.0,0.0,0.0,0.0
1490728682797333002,21040,1490728682797333002,,-0.0352783203125,0.0111083984375,-0.433776855469,0.900268554688,0.0,0.0,0.0,0.0,0.0,0.0,0.0,0.0,0.0,-9.69627777778e-05,-9.69627777778e-05,1.93925555556e-05,0.0,0.0,0.0,0.0,0.0,0.0,0.0,0.0,0.0,-0.02,-0.01,0.2,0.0,0.0,0.0,0.0,0.0,0.0,0.0,0.0,0.0
1490728682828625917,21041,1490728682828625917,,-0.0353393554688,0.0111694335938,-0.433776855469,0.900268554688,0.0,0.0,0.0,0.0,0.0,0.0,0.0,0.0,0.0,-0.000174533,0.0,0.0,0.0,0.0,0.0,0.0,0.0,0.0,0.0,0.0,0.0,-0.03,-0.18,0.12,0.0,0.0,0.0,0.0,0.0,0.0,0.0,0.0,0.0
1490728682857017993,21042,1490728682857017993,,-0.0352783203125,0.0111083984375,-0.433776855469,0.900268554688,0.0,0.0,0.0,0.0,0.0,0.0,0.0,0.0,0.0,0.00269556522222,-5.81776666667e-05,0.0,0.0,0.0,0.0,0.0,0.0,0.0,0.0,0.0,0.0,-0.04,0.0,0.25,0.0,0.0,0.0,0.0,0.0,0.0,0.0,0.0,0.0
1490728682885086059,21043,1490728682885086059,,-0.0352783203125,0.0111083984375,-0.433776855469,0.900268554688,0.0,0.0,0.0,0.0,0.0,0.0,0.0,0.0,0.0,-3.87851111111e-05,-1.93925555556e-05,0.0,0.0,0.0,0.0,0.0,0.0,0.0,0.0,0.0,0.0,1.31,-0.08,0.18,0.0,0.0,0.0,0.0,0.0,0.0,0.0,0.0,0.0
1490728682922481060,21044,1490728682922481060,,-0.0353393554688,0.0111694335938,-0.433898925781,0.900207519531,0.0,0.0,0.0,0.0,0.0,0.0,0.0,0.0,0.0,-0.000155140444444,1.93925555556e-05,0.000155140444444,0.0,0.0,0.0,0.0,0.0,0.0,0.0,0.0,0.0,-0.18,-0.21,0.04,0.0,0.0,0.0,0.0,0.0,0.0,0.0,0.0,0.0
1490728682950701951,21045,1490728682950701951,,-0.0352783203125,0.0111083984375,-0.433837890625,0.900207519531,0.0,0.0,0.0,0.0,0.0,0.0,0.0,0.0,0.0,0.00271495777778,7.75702222222e-05,0.000155140444444,0.0,0.0,0.0,0.0,0.0,0.0,0.0,0.0,0.0,-0.14,0.0,0.24,0.0,0.0,0.0,0.0,0.0,0.0,0.0,0.0,0.0
1490728682991905927,21046,1490728682991905927,,-0.0352783203125,0.0111083984375,-0.433837890625,0.900207519531,0.0,0.0,0.0,0.0,0.0,0.0,0.0,0.0,0.0,-1.93925555556e-05,0.0,-3.87851111111e-05,0.0,0.0,0.0,0.0,0.0,0.0,0.0,0.0,0.0,-0.17,0.05,0.31,0.0,0.0,0.0,0.0,0.0,0.0,0.0,0.0,0.0
1490728683022289991,21047,1490728683022289991,,-0.0353393554688,0.010986328125,-0.433776855469,0.900268554688,0.0,0.0,0.0,0.0,0.0,0.0,0.0,0.0,0.0,-0.000174533,-0.000310280888889,0.0,0.0,0.0,0.0,0.0,0.0,0.0,0.0,0.0,0.0,1.28,-0.12,0.12,0.0,0.0,0.0,0.0,0.0,0.0,0.0,0.0,0.0
1490728683064714908,21048,1490728683064714908,,-0.035400390625,0.0109252929688,-0.433776855469,0.900268554688,0.0,0.0,0.0,0.0,0.0,0.0,0.0,0.0,0.0,0.00259860244444,0.000174533,3.87851111111e-05,0.0,0.0,0.0,0.0,0.0,0.0,0.0,0.0,0.0,-0.08,-0.05,0.18,0.0,0.0,0.0,0.0,0.0,0.0,0.0,0.0,0.0
1490728683109178066,21049,1490728683109178066,,-0.035400390625,0.0109252929688,-0.433776855469,0.900268554688,0.0,0.0,0.0,0.0,0.0,0.0,0.0,0.0,0.0,0.00263738755556,-3.87851111111e-05,-1.93925555556e-05,0.0,0.0,0.0,0.0,0.0,0.0,0.0,0.0,0.0,-0.02,0.03,0.1,0.0,0.0,0.0,0.0,0.0,0.0,0.0,0.0,0.0
1490728683157043933,21050,1490728683157043933,,-0.035400390625,0.0109252929688,-0.433776855469,0.900268554688,0.0,0.0,0.0,0.0,0.0,0.0,0.0,0.0,0.0,-3.87851111111e-05,0.000116355333333,0.0,0.0,0.0,0.0,0.0,0.0,0.0,0.0,0.0,0.0,-0.07,0.0,0.23,0.0,0.0,0.0,0.0,0.0,0.0,0.0,0.0,0.0
1490728683196784019,21051,1490728683196784019,,-0.0354614257812,0.0109252929688,-0.433776855469,0.900268554688,0.0,0.0,0.0,0.0,0.0,0.0,0.0,0.0,0.0,-9.69627777778e-05,-3.87851111111e-05,-1.93925555556e-05,0.0,0.0,0.0,0.0,0.0,0.0,0.0,0.0,0.0,-0.08,-0.17,0.2,0.0,0.0,0.0,0.0,0.0,0.0,0.0,0.0,0.0
1490728683238089084,21052,1490728683238089084,,-0.0354614257812,0.0109252929688,-0.433776855469,0.900268554688,0.0,0.0,0.0,0.0,0.0,0.0,0.0,0.0,0.0,0.00263738755556,-0.000116355333333,0.0,0.0,0.0,0.0,0.0,0.0,0.0,0.0,0.0,0.0,1.35,-0.01,0.18,0.0,0.0,0.0,0.0,0.0,0.0,0.0,0.0,0.0
1490728683275134086,21053,1490728683275134086,,-0.0353393554688,0.0108642578125,-0.433776855469,0.900268554688,0.0,0.0,0.0,0.0,0.0,0.0,0.0,0.0,0.0,-1.93925555556e-05,0.000193925555556,-5.81776666667e-05,0.0,0.0,0.0,0.0,0.0,0.0,0.0,0.0,0.0,-0.1,0.01,0.25,0.0,0.0,0.0,0.0,0.0,0.0,0.0,0.0,0.0
1490728683310863971,21054,1490728683310863971,,-0.035400390625,0.0109252929688,-0.433776855469,0.900268554688,0.0,0.0,0.0,0.0,0.0,0.0,0.0,0.0,0.0,-0.000155140444444,-0.000232710666667,5.81776666667e-05,0.0,0.0,0.0,0.0,0.0,0.0,0.0,0.0,0.0,1.29,-0.21,0.07,0.0,0.0,0.0,0.0,0.0,0.0,0.0,0.0,0.0
1490728683347681045,21055,1490728683347681045,,-0.035400390625,0.0108642578125,-0.433776855469,0.900268554688,0.0,0.0,0.0,0.0,0.0,0.0,0.0,0.0,0.0,0.00257920988889,3.87851111111e-05,-3.87851111111e-05,0.0,0.0,0.0,0.0,0.0,0.0,0.0,0.0,0.0,0.0,-0.06,0.16,0.0,0.0,0.0,0.0,0.0,0.0,0.0,0.0,0.0
1490728683386179924,21056,1490728683386179924,,-0.0352783203125,0.0108032226562,-0.433776855469,0.900268554688,0.0,0.0,0.0,0.0,0.0,0.0,0.0,0.0,0.0,0.00250163966667,5.81776666667e-05,1.93925555556e-05,0.0,0.0,0.0,0.0,0.0,0.0,0.0,0.0,0.0,-0.14,0.03,0.23,0.0,0.0,0.0,0.0,0.0,0.0,0.0,0.0,0.0
1490728683410845041,21057,1490728683410845041,,-0.0352783203125,0.0108032226562,-0.433776855469,0.900268554688,0.0,0.0,0.0,0.0,0.0,0.0,0.0,0.0,0.0,-0.000135747888889,-9.69627777778e-05,0.0,0.0,0.0,0.0,0.0,0.0,0.0,0.0,0.0,0.0,1.29,-0.12,0.11,0.0,0.0,0.0,0.0,0.0,0.0,0.0,0.0,0.0
1490728683461035966,21058,1490728683461035966,,-0.0353393554688,0.0107421875,-0.433776855469,0.900268554688,0.0,0.0,0.0,0.0,0.0,0.0,0.0,0.0,0.0,5.81776666667e-05,9.69627777778e-05,0.0,0.0,0.0,0.0,0.0,0.0,0.0,0.0,0.0,0.0,-0.06,-0.06,0.15,0.0,0.0,0.0,0.0,0.0,0.0,0.0,0.0,0.0
1490728683496119976,21059,1490728683496119976,,-0.0353393554688,0.0107421875,-0.433776855469,0.900268554688,0.0,0.0,0.0,0.0,0.0,0.0,0.0,0.0,0.0,0.0,5.81776666667e-05,1.93925555556e-05,0.0,0.0,0.0,0.0,0.0,0.0,0.0,0.0,0.0,-0.08,-0.03,0.19,0.0,0.0,0.0,0.0,0.0,0.0,0.0,0.0,0.0
1490728683534595012,21060,1490728683534595012,,-0.0353393554688,0.0106811523438,-0.433776855469,0.900268554688,0.0,0.0,0.0,0.0,0.0,0.0,0.0,0.0,0.0,-3.87851111111e-05,-0.000135747888889,-1.93925555556e-05,0.0,0.0,0.0,0.0,0.0,0.0,0.0,0.0,0.0,1.28,-0.04,0.21,0.0,0.0,0.0,0.0,0.0,0.0,0.0,0.0,0.0
1490728683561399936,21061,1490728683561399936,,-0.0353393554688,0.0106811523438,-0.433776855469,0.900268554688,0.0,0.0,0.0,0.0,0.0,0.0,0.0,0.0,0.0,-1.93925555556e-05,1.93925555556e-05,-1.93925555556e-05,0.0,0.0,0.0,0.0,0.0,0.0,0.0,0.0,0.0,-0.63,0.01,-0.02,0.0,0.0,0.0,0.0,0.0,0.0,0.0,0.0,0.0
1490728683605366945,21062,1490728683605366945,,-0.0352783203125,0.010986328125,-0.433715820312,0.900268554688,0.0,0.0,0.0,0.0,0.0,0.0,0.0,0.0,0.0,0.00250163966667,1.93925555556e-05,-7.75702222222e-05,0.0,0.0,0.0,0.0,0.0,0.0,0.0,0.0,0.0,-0.04,-0.1,0.07,0.0,0.0,0.0,0.0,0.0,0.0,0.0,0.0,0.0
1490728683645195960,21063,1490728683645195960,,-0.0352172851562,0.0108642578125,-0.433776855469,0.900268554688,0.0,0.0,0.0,0.0,0.0,0.0,0.0,0.0,0.0,0.00254042477778,-9.69627777778e-05,0.000387851111111,0.0,0.0,0.0,0.0,0.0,0.0,0.0,0.0,0.0,1.72,0.21,0.32,0.0,0.0,0.0,0.0,0.0,0.0,0.0,0.0,0.0
1490728683681370019,21064,1490728683681370019,,-0.0352172851562,0.0108032226562,-0.433776855469,0.900268554688,0.0,0.0,0.0,0.0,0.0,0.0,0.0,0.0,0.0,-0.000116355333333,0.000116355333333,0.000174533,0.0,0.0,0.0,0.0,0.0,0.0,0.0,0.0,0.0,-0.01,0.0,0.12,0.0,0.0,0.0,0.0,0.0,0.0,0.0,0.0,0.0
1490728683717065095,21065,1490728683717065095,,-0.0352172851562,0.0108642578125,-0.433776855469,0.900268554688,0.0,0.0,0.0,0.0,0.0,0.0,0.0,0.0,0.0,-3.87851111111e-05,0.0,5.81776666667e-05,0.0,0.0,0.0,0.0,0.0,0.0,0.0,0.0,0.0,-0.15,-0.11,0.11,0.0,0.0,0.0,0.0,0.0,0.0,0.0,0.0,0.0
1490728683749617099,21066,1490728683749617099,,-0.0352783203125,0.0107421875,-0.433776855469,0.900268554688,0.0,0.0,0.0,0.0,0.0,0.0,0.0,0.0,0.0,0.00252103222222,-0.000116355333333,0.0,0.0,0.0,0.0,0.0,0.0,0.0,0.0,0.0,0.0,1.37,-0.05,0.17,0.0,0.0,0.0,0.0,0.0,0.0,0.0,0.0,0.0
1490728683786863088,21067,1490728683786863088,,-0.0352783203125,0.0108032226562,-0.433776855469,0.900268554688,0.0,0.0,0.0,0.0,0.0,0.0,0.0,0.0,0.0,-1.93925555556e-05,0.000193925555556,-1.93925555556e-05,0.0,0.0,0.0,0.0,0.0,0.0,0.0,0.0,0.0,-0.12,-0.1,0.17,0.0,0.0,0.0,0.0,0.0,0.0,0.0,0.0,0.0
1490728683829912900,21068,1490728683829912900,,-0.0352172851562,0.010986328125,-0.433776855469,0.900268554688,0.0,0.0,0.0,0.0,0.0,0.0,0.0,0.0,0.0,0.00248224711111,-0.000135747888889,3.87851111111e-05,0.0,0.0,0.0,0.0,0.0,0.0,0.0,0.0,0.0,-0.16,-0.06,0.12,0.0,0.0,0.0,0.0,0.0,0.0,0.0,0.0,0.0
1490728683871273994,21069,1490728683871273994,,-0.0352783203125,0.0108642578125,-0.433776855469,0.900268554688,0.0,0.0,0.0,0.0,0.0,0.0,0.0,0.0,0.0,0.00248224711111,-0.000116355333333,3.87851111111e-05,0.0,0.0,0.0,0.0,0.0,0.0,0.0,0.0,0.0,0.05,-0.07,-0.02,0.0,0.0,0.0,0.0,0.0,0.0,0.0,0.0,0.0
1490728683905181884,21070,1490728683905181884,,-0.0353393554688,0.0109252929688,-0.433776855469,0.900268554688,0.0,0.0,0.0,0.0,0.0,0.0,0.0,0.0,0.0,0.00254042477778,0.000135747888889,-3.87851111111e-05,0.0,0.0,0.0,0.0,0.0,0.0,0.0,0.0,0.0,-0.1,-0.1,0.11,0.0,0.0,0.0,0.0,0.0,0.0,0.0,0.0,0.0
1490728683934973955,21071,1490728683934973955,,-0.0353393554688,0.010986328125,-0.433776855469,0.900268554688,0.0,0.0,0.0,0.0,0.0,0.0,0.0,0.0,0.0,0.00250163966667,1.93925555556e-05,-1.93925555556e-05,0.0,0.0,0.0,0.0,0.0,0.0,0.0,0.0,0.0,-0.04,0.0,0.28,0.0,0.0,0.0,0.0,0.0,0.0,0.0,0.0,0.0
1490728683964967012,21072,1490728683964967012,,-0.0353393554688,0.010986328125,-0.433776855469,0.900268554688,0.0,0.0,0.0,0.0,0.0,0.0,0.0,0.0,0.0,-5.81776666667e-05,-1.93925555556e-05,-1.93925555556e-05,0.0,0.0,0.0,0.0,0.0,0.0,0.0,0.0,0.0,-0.02,-0.06,0.13,0.0,0.0,0.0,0.0,0.0,0.0,0.0,0.0,0.0
1490728683994128942,21073,1490728683994128942,,-0.0353393554688,0.0110473632812,-0.433776855469,0.900268554688,0.0,0.0,0.0,0.0,0.0,0.0,0.0,0.0,0.0,-1.93925555556e-05,-5.81776666667e-05,-9.69627777778e-05,0.0,0.0,0.0,0.0,0.0,0.0,0.0,0.0,0.0,-0.17,-0.27,0.11,0.0,0.0,0.0,0.0,0.0,0.0,0.0,0.0,0.0
1490728684026449918,21074,1490728684026449918,,-0.035400390625,0.0111083984375,-0.433776855469,0.900268554688,0.0,0.0,0.0,0.0,0.0,0.0,0.0,0.0,0.0,0.00254042477778,-0.000116355333333,5.81776666667e-05,0.0,0.0,0.0,0.0,0.0,0.0,0.0,0.0,0.0,-0.15,-0.22,0.23,0.0,0.0,0.0,0.0,0.0,0.0,0.0,0.0,0.0
1490728684068782091,21075,1490728684068782091,,-6.103515625e-05,-6.103515625e-05,-6.103515625e-05,-0.00299072265625,0.0,0.0,0.0,0.0,0.0,0.0,0.0,0.0,0.0,0.00250163966667,7.75702222222e-05,5.81776666667e-05,0.0,0.0,0.0,0.0,0.0,0.0,0.0,0.0,0.0,-0.02,-0.03,0.29,0.0,0.0,0.0,0.0,0.0,0.0,0.0,0.0,0.0
1490728684101500988,21076,1490728684101500988,,-0.035400390625,0.0111694335938,-0.433776855469,0.900268554688,0.0,0.0,0.0,0.0,0.0,0.0,0.0,0.0,0.0,-5.81776666667e-05,-3.87851111111e-05,3.87851111111e-05,0.0,0.0,0.0,0.0,0.0,0.0,0.0,0.0,0.0,1.29,-0.09,0.04,0.0,0.0,0.0,0.0,0.0,0.0,0.0,0.0,0.0
1490728684141097068,21077,1490728684141097068,,-0.0354614257812,0.0111694335938,-0.433776855469,0.900268554688,0.0,0.0,0.0,0.0,0.0,0.0,0.0,0.0,0.0,0.00257920988889,-1.93925555556e-05,-3.87851111111e-05,0.0,0.0,0.0,0.0,0.0,0.0,0.0,0.0,0.0,0.02,-0.01,0.22,0.0,0.0,0.0,0.0,0.0,0.0,0.0,0.0,0.0
1490728684173032999,21078,1490728684173032999,,-0.0354614257812,0.01123046875,-0.433776855469,0.900268554688,0.0,0.0,0.0,0.0,0.0,0.0,0.0,0.0,0.0,-1.93925555556e-05,0.0,-5.81776666667e-05,0.0,0.0,0.0,0.0,0.0,0.0,0.0,0.0,0.0,-0.13,-0.13,0.19,0.0,0.0,0.0,0.0,0.0,0.0,0.0,0.0,0.0
1490728684210728883,21079,1490728684210728883,,-0.0354614257812,0.0112915039062,-0.433776855469,0.900268554688,0.0,0.0,0.0,0.0,0.0,0.0,0.0,0.0,0.0,0.0,-9.69627777778e-05,1.93925555556e-05,0.0,0.0,0.0,0.0,0.0,0.0,0.0,0.0,0.0,-0.06,-0.15,0.28,0.0,0.0,0.0,0.0,0.0,0.0,0.0,0.0,0.0
1490728684259875059,21080,1490728684259875059,,-0.0354614257812,0.0113525390625,1.56622314453,0.900268554688,0.0,0.0,0.0,0.0,0.0,0.0,0.0,0.0,0.0,-3.87851111111e-05,-1.93925555556e-05,1.93925555556e-05,0.0,0.0,0.0,0.0,0.0,0.0,0.0,0.0,0.0,-0.08,-0.06,0.32,0.0,0.0,0.0,0.0,0.0,0.0,0.0,0.0,0.0
1490728684293085098,21081,1490728684293085098,,-0.0354614257812,0.0114135742188,-0.433776855469,0.900268554688,0.0,0.0,0.0,0.0,0.0,0.0,0.0,0.0,0.0,-9.69627777778e-05,-0.000135747888889,1.93925555556e-05,0.0,0.0,0.0,0.0,0.0,0.0,0.0,0.0,0.0,0.01,-0.01,0.21,0.0,0.0,0.0,0.0,0.0,0.0,0.0,0.0,0.0
1490728684325998067,21082,1490728684325998067,,-0.0355224609375,0.0114135742188,-0.433776855469,0.900268554688,0.0,0.0,0.0,0.0,0.0,0.0,0.0,0.0,0.0,0.00257920988889,5.81776666667e-05,5.81776666667e-05,0.0,0.0,0.0,0.0,0.0,0.0,0.0,0.0,0.0,1.32,-0.02,0.11,0.0,0.0,0.0,0.0,0.0,0.0,0.0,0.0,0.0
1490728684362900972,21083,1490728684362900972,,-0.0355224609375,0.011474609375,-0.433776855469,0.900268554688,0.0,0.0,0.0,0.0,0.0,0.0,0.0,0.0,0.0,0.00255981733333,1.93925555556e-05,-1.93925555556e-05,0.0,0.0,0.0,0.0,0.0,0.0,0.0,0.0,0.0,-0.12,-0.03,0.13,0.0,0.0,0.0,0.0,0.0,0.0,0.0,0.0,0.0
1490728684405757904,21084,1490728684405757904,,-0.0355224609375,0.011474609375,-0.433776855469,0.900268554688,0.0,0.0,0.0,0.0,0.0,0.0,0.0,0.0,0.0,-5.81776666667e-05,1.93925555556e-05,-1.93925555556e-05,0.0,0.0,0.0,0.0,0.0,0.0,0.0,0.0,0.0,-0.08,-0.06,0.19,0.0,0.0,0.0,0.0,0.0,0.0,0.0,0.0,0.0
1490728684444052934,21085,1490728684444052934,,-0.0355224609375,0.0115356445312,-0.433776855469,0.900268554688,0.0,0.0,0.0,0.0,0.0,0.0,0.0,0.0,0.0,0.00250163966667,0.0,-1.93925555556e-05,0.0,0.0,0.0,0.0,0.0,0.0,0.0,0.0,0.0,-0.04,-0.03,0.28,0.0,0.0,0.0,0.0,0.0,0.0,0.0,0.0,0.0
1490728684489243030,21086,1490728684489243030,,-0.0355224609375,0.0115356445312,-0.433776855469,0.900268554688,0.0,0.0,0.0,0.0,0.0,0.0,0.0,0.0,0.0,0.00255981733333,-5.81776666667e-05,-7.75702222222e-05,0.0,0.0,0.0,0.0,0.0,0.0,0.0,0.0,0.0,-0.06,0.02,0.18,0.0,0.0,0.0,0.0,0.0,0.0,0.0,0.0,0.0
1490728684515428066,21087,1490728684515428066,,-0.0355224609375,0.0115356445312,-0.433776855469,0.900268554688,0.0,0.0,0.0,0.0,0.0,0.0,0.0,0.0,0.0,-5.81776666667e-05,-0.000135747888889,-3.87851111111e-05,0.0,0.0,0.0,0.0,0.0,0.0,0.0,0.0,0.0,1.33,0.07,0.3,0.0,0.0,0.0,0.0,0.0,0.0,0.0,0.0,0.0
1490728684540981054,21088,1490728684540981054,,-0.0355834960938,0.0115356445312,-0.433776855469,0.900268554688,0.0,0.0,0.0,0.0,0.0,0.0,0.0,0.0,0.0,-1.93925555556e-05,3.87851111111e-05,7.75702222222e-05,0.0,0.0,0.0,0.0,0.0,0.0,0.0,0.0,0.0,-0.07,-0.23,0.08,0.0,0.0,0.0,0.0,0.0,0.0,0.0,0.0,0.0
1490728684567636013,21089,1490728684567636013,,-0.03564453125,0.0116577148438,-0.433837890625,0.900207519531,0.0,0.0,0.0,0.0,0.0,0.0,0.0,0.0,0.0,0.00257920988889,7.75702222222e-05,-9.69627777778e-05,0.0,0.0,0.0,0.0,0.0,0.0,0.0,0.0,0.0,-0.15,0.0,0.2,0.0,0.0,0.0,0.0,0.0,0.0,0.0,0.0,0.0
1490728684606028079,21090,1490728684606028079,,-0.03564453125,0.01171875,-0.433837890625,0.900207519531,0.0,0.0,0.0,0.0,0.0,0.0,0.0,0.0,0.0,-3.87851111111e-05,-7.75702222222e-05,-3.87851111111e-05,0.0,0.0,0.0,0.0,0.0,0.0,0.0,0.0,0.0,-0.1,0.06,0.31,0.0,0.0,0.0,0.0,0.0,0.0,0.0,0.0,0.0
1490728684629317998,21091,1490728684629317998,,-0.03564453125,0.01171875,-0.433837890625,0.900207519531,0.0,0.0,0.0,0.0,0.0,0.0,0.0,0.0,0.0,-9.69627777778e-05,-7.75702222222e-05,5.81776666667e-05,0.0,0.0,0.0,0.0,0.0,0.0,0.0,0.0,0.0,-0.04,-0.05,0.12,0.0,0.0,0.0,0.0,0.0,0.0,0.0,0.0,0.0
1490728684669759988,21092,1490728684669759988,,-0.0357055664062,0.0117797851562,-0.433837890625,0.900207519531,0.0,0.0,0.0,0.0,0.0,0.0,0.0,0.0,0.0,-3.87851111111e-05,-7.75702222222e-05,-1.93925555556e-05,0.0,0.0,0.0,0.0,0.0,0.0,0.0,0.0,0.0,1.28,-0.15,0.09,0.0,0.0,0.0,0.0,0.0,0.0,0.0,0.0,0.0
1490728684705420970,21093,1490728684705420970,,-0.0357666015625,0.0117797851562,-0.433837890625,0.900207519531,0.0,0.0,0.0,0.0,0.0,0.0,0.0,0.0,0.0,0.00259860244444,-5.81776666667e-05,-1.93925555556e-05,0.0,0.0,0.0,0.0,0.0,0.0,0.0,0.0,0.0,1.28,-0.01,0.23,0.0,0.0,0.0,0.0,0.0,0.0,0.0,0.0,0.0
1490728684747107982,21094,1490728684747107982,,-0.0357055664062,0.0118408203125,-0.433837890625,0.900207519531,0.0,0.0,0.0,0.0,0.0,0.0,0.0,0.0,0.0,-1.93925555556e-05,1.93925555556e-05,0.0,0.0,0.0,0.0,0.0,0.0,0.0,0.0,0.0,0.0,-0.1,-0.07,0.16,0.0,0.0,0.0,0.0,0.0,0.0,0.0,0.0,0.0
1490728684796251058,21095,1490728684796251058,,-0.0357666015625,0.0118408203125,-0.433837890625,0.900207519531,0.0,0.0,0.0,0.0,0.0,0.0,0.0,0.0,0.0,0.00257920988889,-7.75702222222e-05,0.0,0.0,0.0,0.0,0.0,0.0,0.0,0.0,0.0,0.0,1.29,-0.1,0.26,0.0,0.0,0.0,0.0,0.0,0.0,0.0,0.0,0.0
1490728684839046955,21096,1490728684839046955,,-0.0357666015625,0.0119018554688,-0.433837890625,0.900207519531,0.0,0.0,0.0,0.0,0.0,0.0,0.0,0.0,0.0,0.00252103222222,5.81776666667e-05,3.87851111111e-05,0.0,0.0,0.0,0.0,0.0,0.0,0.0,0.0,0.0,-0.06,0.0,0.13,0.0,0.0,0.0,0.0,0.0,0.0,0.0,0.0,0.0
1490728684862550020,21097,1490728684862550020,,-0.0357666015625,0.0119018554688,-0.433837890625,0.900207519531,0.0,0.0,0.0,0.0,0.0,0.0,0.0,0.0,0.0,0.00250163966667,-9.69627777778e-05,0.0,0.0,0.0,0.0,0.0,0.0,0.0,0.0,0.0,0.0,-0.01,0.0,0.11,0.0,0.0,0.0,0.0,0.0,0.0,0.0,0.0,0.0
1490728684904469013,21098,1490728684904469013,,-0.0357666015625,0.0119018554688,-0.433837890625,0.900207519531,0.0,0.0,0.0,0.0,0.0,0.0,0.0,0.0,0.0,-3.87851111111e-05,1.93925555556e-05,0.0,0.0,0.0,0.0,0.0,0.0,0.0,0.0,0.0,0.0,-0.02,-0.09,0.24,0.0,0.0,0.0,0.0,0.0,0.0,0.0,0.0,0.0
1490728684940294027,21099,1490728684940294027,,-0.0357666015625,0.0119018554688,-0.433837890625,0.900207519531,0.0,0.0,0.0,0.0,0.0,0.0,0.0,0.0,0.0,0.00250163966667,-1.93925555556e-05,1.93925555556e-05,0.0,0.0,0.0,0.0,0.0,0.0,0.0,0.0,0.0,-0.05,-0.04,0.29,0.0,0.0,0.0,0.0,0.0,0.0,0.0,0.0,0.0
1490728684984276056,21100,1490728684984276056,,-0.0358276367188,0.0118408203125,-0.433776855469,0.900268554688,0.0,0.0,0.0,0.0,0.0,0.0,0.0,0.0,0.0,-0.000174533,-0.000193925555556,-0.000213318111111,0.0,0.0,0.0,0.0,0.0,0.0,0.0,0.0,0.0,1.62,0.1,0.23,0.0,0.0,0.0,0.0,0.0,0.0,0.0,0.0,0.0
1490728685016064882,21101,1490728685016064882,,-0.035888671875,0.0117797851562,-0.433715820312,0.900268554688,0.0,0.0,0.0,0.0,0.0,0.0,0.0,0.0,0.0,0.00255981733333,0.000213318111111,-0.000213318111111,0.0,0.0,0.0,0.0,0.0,0.0,0.0,0.0,0.0,1.47,0.0,-0.02,0.0,0.0,0.0,0.0,0.0,0.0,0.0,0.0,0.0
1490728685057427883,21102,1490728685057427883,,-0.0358276367188,0.0120239257812,-0.433837890625,0.900207519531,0.0,0.0,0.0,0.0,0.0,0.0,0.0,0.0,0.0,0.00263738755556,-5.81776666667e-05,-0.000329673444444,0.0,0.0,0.0,0.0,0.0,0.0,0.0,0.0,0.0,1.39,0.19,0.2,0.0,0.0,0.0,0.0,0.0,0.0,0.0,0.0,0.0
1490728685086847066,21103,1490728685086847066,,-0.0358276367188,0.0120239257812,-0.433837890625,0.900207519531,0.0,0.0,0.0,0.0,0.0,0.0,0.0,0.0,0.0,0.00248224711111,-5.81776666667e-05,0.0,0.0,0.0,0.0,0.0,0.0,0.0,0.0,0.0,0.0,1.53,0.11,0.32,0.0,0.0,0.0,0.0,0.0,0.0,0.0,0.0,0.0
1490728685122706890,21104,1490728685122706890,,-0.0358276367188,0.011962890625,-0.433837890625,0.900207519531,0.0,0.0,0.0,0.0,0.0,0.0,0.0,0.0,0.0,-9.69627777778e-05,1.93925555556e-05,-3.87851111111e-05,0.0,0.0,0.0,0.0,0.0,0.0,0.0,0.0,0.0,1.32,-0.07,0.27,0.0,0.0,0.0,0.0,0.0,0.0,0.0,0.0,0.0
1490728685154577970,21105,1490728685154577970,,-0.0358276367188,0.0120239257812,-0.433837890625,0.900207519531,0.0,0.0,0.0,0.0,0.0,0.0,0.0,0.0,0.0,0.00252103222222,-0.000116355333333,-9.69627777778e-05,0.0,0.0,0.0,0.0,0.0,0.0,0.0,0.0,0.0,1.36,-0.06,0.08,0.0,0.0,0.0,0.0,0.0,0.0,0.0,0.0,0.0
1490728685195192098,21106,1490728685195192098,,-0.035888671875,0.0120239257812,-0.433837890625,0.900207519531,0.0,0.0,0.0,0.0,0.0,0.0,0.0,0.0,0.0,0.00248224711111,0.000116355333333,-7.75702222222e-05,0.0,0.0,0.0,0.0,0.0,0.0,0.0,0.0,0.0,1.33,0.01,0.14,0.0,0.0,0.0,0.0,0.0,0.0,0.0,0.0,0.0
1490728685230761051,21107,1490728685230761051,,-0.035888671875,0.0120239257812,-0.433837890625,0.900207519531,0.0,0.0,0.0,0.0,0.0,0.0,0.0,0.0,0.0,0.00250163966667,9.69627777778e-05,-1.93925555556e-05,0.0,0.0,0.0,0.0,0.0,0.0,0.0,0.0,0.0,-0.13,-0.02,0.26,0.0,0.0,0.0,0.0,0.0,0.0,0.0,0.0,0.0
1490728685258479118,21108,1490728685258479118,,-0.035888671875,0.0120849609375,-0.433837890625,0.900207519531,0.0,0.0,0.0,0.0,0.0,0.0,0.0,0.0,0.0,0.00248224711111,-0.000252103222222,-7.75702222222e-05,0.0,0.0,0.0,0.0,0.0,0.0,0.0,0.0,0.0,-0.08,-0.01,0.1,0.0,0.0,0.0,0.0,0.0,0.0,0.0,0.0,0.0
1490728685299483060,21109,1490728685299483060,,-0.0359497070312,0.011962890625,-0.433837890625,0.900207519531,0.0,0.0,0.0,0.0,0.0,0.0,0.0,0.0,0.0,-5.81776666667e-05,-3.87851111111e-05,3.87851111111e-05,0.0,0.0,0.0,0.0,0.0,0.0,0.0,0.0,0.0,1.53,-0.02,0.08,0.0,0.0,0.0,0.0,0.0,0.0,0.0,0.0,0.0
1490728685334266901,21110,1490728685334266901,,-0.035888671875,0.0120849609375,-0.433837890625,0.900207519531,0.0,0.0,0.0,0.0,0.0,0.0,0.0,0.0,0.0,0.00263738755556,0.000135747888889,-5.81776666667e-05,0.0,0.0,0.0,0.0,0.0,0.0,0.0,0.0,0.0,-0.11,-0.12,0.2,0.0,0.0,0.0,0.0,0.0,0.0,0.0,0.0,0.0
1490728685370356082,21111,1490728685370356082,,-0.035888671875,0.0120849609375,-0.433837890625,0.900207519531,0.0,0.0,0.0,0.0,0.0,0.0,0.0,0.0,0.0,-5.81776666667e-05,-0.000232710666667,1.93925555556e-05,0.0,0.0,0.0,0.0,0.0,0.0,0.0,0.0,0.0,1.29,0.03,0.21,0.0,0.0,0.0,0.0,0.0,0.0,0.0,0.0,0.0
1490728685407605886,21112,1490728685407605886,,-0.0359497070312,0.0120239257812,-0.433837890625,0.900207519531,0.0,0.0,0.0,0.0,0.0,0.0,0.0,0.0,0.0,-7.75702222222e-05,0.000116355333333,3.87851111111e-05,0.0,0.0,0.0,0.0,0.0,0.0,0.0,0.0,0.0,-0.01,-0.11,0.1,0.0,0.0,0.0,0.0,0.0,0.0,0.0,0.0,0.0
1490728685474721908,21113,1490728685474721908,,-0.0359497070312,0.0120849609375,-0.433837890625,0.900207519531,0.0,0.0,0.0,0.0,0.0,0.0,0.0,0.0,0.0,0.00250163966667,-0.000193925555556,7.75702222222e-05,0.0,0.0,0.0,0.0,0.0,0.0,0.0,0.0,0.0,0.03,0.03,0.19,0.0,0.0,0.0,0.0,0.0,0.0,0.0,0.0,0.0
1490728685505851984,21114,1490728685505851984,,-6.103515625e-05,-6.103515625e-05,-6.103515625e-05,-0.0030517578125,0.0,0.0,0.0,0.0,0.0,0.0,0.0,0.0,0.0,-9.69627777778e-05,0.000116355333333,-3.87851111111e-05,0.0,0.0,0.0,0.0,0.0,0.0,0.0,0.0,0.0,-0.05,-0.1,0.1,0.0,0.0,0.0,0.0,0.0,0.0,0.0,0.0,0.0
1490728685540889978,21115,1490728685540889978,,-0.0359497070312,0.0120849609375,-0.433837890625,0.900207519531,0.0,0.0,0.0,0.0,0.0,0.0,0.0,0.0,0.0,0.00250163966667,5.81776666667e-05,-7.75702222222e-05,0.0,0.0,0.0,0.0,0.0,0.0,0.0,0.0,0.0,-0.09,-0.02,0.25,0.0,0.0,0.0,0.0,0.0,0.0,0.0,0.0,0.0
1490728685576230049,21116,1490728685576230049,,-0.0360107421875,0.0120239257812,-0.433837890625,0.900207519531,0.0,0.0,0.0,0.0,0.0,0.0,0.0,0.0,0.0,-5.81776666667e-05,-0.000116355333333,1.93925555556e-05,0.0,0.0,0.0,0.0,0.0,0.0,0.0,0.0,0.0,1.33,-0.06,0.15,0.0,0.0,0.0,0.0,0.0,0.0,0.0,0.0,0.0
1490728685619337081,21117,1490728685619337081,,-0.0360107421875,0.0120239257812,-0.433837890625,0.900207519531,0.0,0.0,0.0,0.0,0.0,0.0,0.0,0.0,0.0,0.00248224711111,0.000116355333333,0.0,0.0,0.0,0.0,0.0,0.0,0.0,0.0,0.0,0.0,-0.09,0.0,0.24,0.0,0.0,0.0,0.0,0.0,0.0,0.0,0.0,0.0
1490728685664975881,21118,1490728685664975881,,-0.0360107421875,0.0120239257812,-0.433837890625,0.900207519531,0.0,0.0,0.0,0.0,0.0,0.0,0.0,0.0,0.0,-9.69627777778e-05,-0.000116355333333,5.81776666667e-05,0.0,0.0,0.0,0.0,0.0,0.0,0.0,0.0,0.0,1.31,-0.08,0.15,0.0,0.0,0.0,0.0,0.0,0.0,0.0,0.0,0.0
1490728685712233066,21119,1490728685712233066,,-0.0360107421875,0.0120239257812,-0.433837890625,0.900207519531,0.0,0.0,0.0,0.0,0.0,0.0,0.0,0.0,0.0,3.87851111111e-05,7.75702222222e-05,7.75702222222e-05,0.0,0.0,0.0,0.0,0.0,0.0,0.0,0.0,0.0,-0.05,-0.09,0.11,0.0,0.0,0.0,0.0,0.0,0.0,0.0,0.0,0.0
1490728685739917993,21120,1490728685739917993,,-0.0360107421875,0.0120239257812,-0.433837890625,0.900207519531,0.0,0.0,0.0,0.0,0.0,0.0,0.0,0.0,0.0,0.00254042477778,-0.000116355333333,3.87851111111e-05,0.0,0.0,0.0,0.0,0.0,0.0,0.0,0.0,0.0,-0.14,-0.02,0.31,0.0,0.0,0.0,0.0,0.0,0.0,0.0,0.0,0.0
1490728685761626005,21121,1490728685761626005,,-0.0360717773438,0.0119018554688,-0.433837890625,0.900207519531,0.0,0.0,0.0,0.0,0.0,0.0,0.0,0.0,0.0,-0.000116355333333,-0.000329673444444,-3.87851111111e-05,0.0,0.0,0.0,0.0,0.0,0.0,0.0,0.0,0.0,-0.09,-0.06,0.29,0.0,0.0,0.0,0.0,0.0,0.0,0.0,0.0,0.0
1490728685785648107,21122,1490728685785648107,,-0.0361328125,0.0117797851562,-0.433837890625,0.900207519531,0.0,0.0,0.0,0.0,0.0,0.0,0.0,0.0,0.0,-3.87851111111e-05,-7.75702222222e-05,1.93925555556e-05,0.0,0.0,0.0,0.0,0.0,0.0,0.0,0.0,0.0,1.31,-0.21,0.2,0.0,0.0,0.0,0.0,0.0,0.0,0.0,0.0,0.0
1490728685811347007,21123,1490728685811347007,,-0.0361328125,0.0117797851562,-0.433837890625,0.900207519531,0.0,0.0,0.0,0.0,0.0,0.0,0.0,0.0,0.0,0.00252103222222,0.000155140444444,-5.81776666667e-05,0.0,0.0,0.0,0.0,0.0,0.0,0.0,0.0,0.0,-0.08,-0.05,0.17,0.0,0.0,0.0,0.0,0.0,0.0,0.0,0.0,0.0
1490728685845928907,21124,1490728685845928907,,-0.0360717773438,0.011962890625,-0.433837890625,0.900207519531,0.0,0.0,0.0,0.0,0.0,0.0,0.0,0.0,0.0,3.87851111111e-05,9.69627777778e-05,7.75702222222e-05,0.0,0.0,0.0,0.0,0.0,0.0,0.0,0.0,0.0,-0.22,-0.03,0.19,0.0,0.0,0.0,0.0,0.0,0.0,0.0,0.0,0.0
1490728685872039079,21125,1490728685872039079,,-0.0360717773438,0.011962890625,-0.433837890625,0.900207519531,0.0,0.0,0.0,0.0,0.0,0.0,0.0,0.0,0.0,-7.75702222222e-05,-0.000174533,0.0,0.0,0.0,0.0,0.0,0.0,0.0,0.0,0.0,0.0,-0.01,-0.08,0.17,0.0,0.0,0.0,0.0,0.0,0.0,0.0,0.0,0.0
1490728685907994985,21126,1490728685907994985,,-0.0360717773438,0.0119018554688,-0.433837890625,0.900207519531,0.0,0.0,0.0,0.0,0.0,0.0,0.0,0.0,0.0,-3.87851111111e-05,-7.75702222222e-05,-1.93925555556e-05,0.0,0.0,0.0,0.0,0.0,0.0,0.0,0.0,0.0,1.29,-0.15,0.17,0.0,0.0,0.0,0.0,0.0,0.0,0.0,0.0,0.0
1490728685944233894,21127,1490728685944233894,,-0.0360717773438,0.0119018554688,-0.433837890625,0.900207519531,0.0,0.0,0.0,0.0,0.0,0.0,0.0,0.0,0.0,0.00252103222222,3.87851111111e-05,0.0,0.0,0.0,0.0,0.0,0.0,0.0,0.0,0.0,0.0,1.28,0.0,0.21,0.0,0.0,0.0,0.0,0.0,0.0,0.0,0.0,0.0
1490728685977096080,21128,1490728685977096080,,-0.0360717773438,0.0119018554688,-0.433837890625,0.900207519531,0.0,0.0,0.0,0.0,0.0,0.0,0.0,0.0,0.0,0.00248224711111,7.75702222222e-05,0.0,0.0,0.0,0.0,0.0,0.0,0.0,0.0,0.0,0.0,-0.1,0.01,0.24,0.0,0.0,0.0,0.0,0.0,0.0,0.0,0.0,0.0
1490728686018109083,21129,1490728686018109083,,-0.0360717773438,0.0119018554688,-0.433837890625,0.900207519531,0.0,0.0,0.0,0.0,0.0,0.0,0.0,0.0,0.0,-5.81776666667e-05,-7.75702222222e-05,9.69627777778e-05,0.0,0.0,0.0,0.0,0.0,0.0,0.0,0.0,0.0,1.28,-0.04,0.17,0.0,0.0,0.0,0.0,0.0,0.0,0.0,0.0,0.0
1490728686053256034,21130,1490728686053256034,,-0.0360717773438,0.0119018554688,-0.433837890625,0.900207519531,0.0,0.0,0.0,0.0,0.0,0.0,0.0,0.0,0.0,0.00250163966667,-5.81776666667e-05,5.81776666667e-05,0.0,0.0,0.0,0.0,0.0,0.0,0.0,0.0,0.0,-0.02,-0.03,0.22,0.0,0.0,0.0,0.0,0.0,0.0,0.0,0.0,0.0
1490728686085002899,21131,1490728686085002899,,-0.0360717773438,0.0119018554688,-0.433837890625,0.900207519531,0.0,0.0,0.0,0.0,0.0,0.0,0.0,0.0,0.0,0.00248224711111,0.0,-7.75702222222e-05,0.0,0.0,0.0,0.0,0.0,0.0,0.0,0.0,0.0,1.32,-0.07,0.19,0.0,0.0,0.0,0.0,0.0,0.0,0.0,0.0,0.0
1490728686113094091,21132,1490728686113094091,,-0.0360717773438,0.0119018554688,-0.433837890625,0.900207519531,0.0,0.0,0.0,0.0,0.0,0.0,0.0,0.0,0.0,1.93925555556e-05,0.0,0.0,0.0,0.0,0.0,0.0,0.0,0.0,0.0,0.0,0.0,1.28,0.02,0.12,0.0,0.0,0.0,0.0,0.0,0.0,0.0,0.0,0.0
1490728686169154882,21133,1490728686169154882,,-0.0360717773438,0.0119018554688,-0.433837890625,0.900207519531,0.0,0.0,0.0,0.0,0.0,0.0,0.0,0.0,0.0,-3.87851111111e-05,3.87851111111e-05,0.0,0.0,0.0,0.0,0.0,0.0,0.0,0.0,0.0,0.0,-0.08,-0.1,0.15,0.0,0.0,0.0,0.0,0.0,0.0,0.0,0.0,0.0
1490728686209819078,21134,1490728686209819078,,-0.0360717773438,0.0119018554688,-0.433837890625,0.900207519531,0.0,0.0,0.0,0.0,0.0,0.0,0.0,0.0,0.0,0.00259860244444,-3.87851111111e-05,-3.87851111111e-05,0.0,0.0,0.0,0.0,0.0,0.0,0.0,0.0,0.0,1.28,-0.05,0.18,0.0,0.0,0.0,0.0,0.0,0.0,0.0,0.0,0.0
1490728686237454891,21135,1490728686237454891,,-0.0360717773438,0.0119018554688,-0.433837890625,0.900207519531,0.0,0.0,0.0,0.0,0.0,0.0,0.0,0.0,0.0,-3.87851111111e-05,0.0,9.69627777778e-05,0.0,0.0,0.0,0.0,0.0,0.0,0.0,0.0,0.0,-0.03,0.0,0.24,0.0,0.0,0.0,0.0,0.0,0.0,0.0,0.0,0.0
1490728686264657020,21136,1490728686264657020,,-6.103515625e-05,-6.103515625e-05,-6.103515625e-05,-0.0030517578125,0.0,0.0,0.0,0.0,0.0,0.0,0.0,0.0,0.0,-0.000116355333333,-1.93925555556e-05,-3.87851111111e-05,0.0,0.0,0.0,0.0,0.0,0.0,0.0,0.0,0.0,1.28,-0.11,0.1,0.0,0.0,0.0,0.0,0.0,0.0,0.0,0.0,0.0
1490728686287760972,21137,1490728686287760972,,-0.0360717773438,0.0119018554688,-0.433837890625,0.900207519531,0.0,0.0,0.0,0.0,0.0,0.0,0.0,0.0,0.0,0.00259860244444,-3.87851111111e-05,-3.87851111111e-05,0.0,0.0,0.0,0.0,0.0,0.0,0.0,0.0,0.0,1.28,-0.1,0.17,0.0,0.0,0.0,0.0,0.0,0.0,0.0,0.0,0.0
1490728686309216976,21138,1490728686309216976,,-0.0360717773438,0.0119018554688,-0.433837890625,0.900207519531,0.0,0.0,0.0,0.0,0.0,0.0,0.0,0.0,0.0,0.00255981733333,1.93925555556e-05,9.69627777778e-05,0.0,0.0,0.0,0.0,0.0,0.0,0.0,0.0,0.0,1.28,0.16,0.24,0.0,0.0,0.0,0.0,0.0,0.0,0.0,0.0,0.0
1490728686333431005,21139,1490728686333431005,,-0.0360717773438,0.0119018554688,-0.433837890625,0.900207519531,0.0,0.0,0.0,0.0,0.0,0.0,0.0,0.0,0.0,-0.000116355333333,-3.87851111111e-05,0.0,0.0,0.0,0.0,0.0,0.0,0.0,0.0,0.0,0.0,-0.02,-0.08,0.19,0.0,0.0,0.0,0.0,0.0,0.0,0.0,0.0,0.0
1490728686376207113,21140,1490728686376207113,,-0.0361328125,0.011962890625,-0.433837890625,0.900207519531,0.0,0.0,0.0,0.0,0.0,0.0,0.0,0.0,0.0,0.002617995,-1.93925555556e-05,0.0,0.0,0.0,0.0,0.0,0.0,0.0,0.0,0.0,0.0,1.29,-0.09,0.15,0.0,0.0,0.0,0.0,0.0,0.0,0.0,0.0,0.0
1490728686406449079,21141,1490728686406449079,,-0.0360717773438,0.0119018554688,-0.433837890625,0.900207519531,0.0,0.0,0.0,0.0,0.0,0.0,0.0,0.0,0.0,0.00254042477778,-7.75702222222e-05,-1.93925555556e-05,0.0,0.0,0.0,0.0,0.0,0.0,0.0,0.0,0.0,-0.02,0.06,0.2,0.0,0.0,0.0,0.0,0.0,0.0,0.0,0.0,0.0
1490728686432609081,21142,1490728686432609081,,-0.0360717773438,0.0119018554688,-0.433837890625,0.900207519531,0.0,0.0,0.0,0.0,0.0,0.0,0.0,0.0,0.0,-9.69627777778e-05,-3.87851111111e-05,-0.000174533,0.0,0.0,0.0,0.0,0.0,0.0,0.0,0.0,0.0,1.41,0.08,0.11,0.0,0.0,0.0,0.0,0.0,0.0,0.0,0.0,0.0
1490728686477322101,21143,1490728686477322101,,-0.0360717773438,0.011962890625,-0.433837890625,0.900207519531,0.0,0.0,0.0,0.0,0.0,0.0,0.0,0.0,0.0,0.00254042477778,0.000135747888889,3.87851111111e-05,0.0,0.0,0.0,0.0,0.0,0.0,0.0,0.0,0.0,-0.07,-0.09,0.11,0.0,0.0,0.0,0.0,0.0,0.0,0.0,0.0,0.0
1490728686513622045,21144,1490728686513622045,,-0.0360717773438,0.0119018554688,-0.433837890625,0.900207519531,0.0,0.0,0.0,0.0,0.0,0.0,0.0,0.0,0.0,-1.93925555556e-05,-0.000155140444444,3.87851111111e-05,0.0,0.0,0.0,0.0,0.0,0.0,0.0,0.0,0.0,-0.01,-0.09,0.12,0.0,0.0,0.0,0.0,0.0,0.0,0.0,0.0,0.0
1490728686551899909,21145,1490728686551899909,,-0.0360717773438,0.0119018554688,-0.433837890625,0.900207519531,0.0,0.0,0.0,0.0,0.0,0.0,0.0,0.0,0.0,0.00257920988889,3.87851111111e-05,3.87851111111e-05,0.0,0.0,0.0,0.0,0.0,0.0,0.0,0.0,0.0,1.28,0.06,0.14,0.0,0.0,0.0,0.0,0.0,0.0,0.0,0.0,0.0
1490728686591119050,21146,1490728686591119050,,-0.0360717773438,0.0119018554688,-0.433837890625,0.900207519531,0.0,0.0,0.0,0.0,0.0,0.0,0.0,0.0,0.0,-5.81776666667e-05,7.75702222222e-05,-3.87851111111e-05,0.0,0.0,0.0,0.0,0.0,0.0,0.0,0.0,0.0,-0.06,-0.08,0.2,0.0,0.0,0.0,0.0,0.0,0.0,0.0,0.0,0.0
1490728686624834060,21147,1490728686624834060,,-6.103515625e-05,-6.103515625e-05,-6.103515625e-05,-0.0030517578125,0.0,0.0,0.0,0.0,0.0,0.0,0.0,0.0,0.0,-3.87851111111e-05,-0.000135747888889,1.93925555556e-05,0.0,0.0,0.0,0.0,0.0,0.0,0.0,0.0,0.0,1.3,-0.1,0.18,0.0,0.0,0.0,0.0,0.0,0.0,0.0,0.0,0.0
1490728686667853116,21148,1490728686667853116,,-0.0360717773438,0.0119018554688,-0.433837890625,0.900207519531,0.0,0.0,0.0,0.0,0.0,0.0,0.0,0.0,0.0,0.00255981733333,9.69627777778e-05,-1.93925555556e-05,0.0,0.0,0.0,0.0,0.0,0.0,0.0,0.0,0.0,1.28,-0.01,0.13,0.0,0.0,0.0,0.0,0.0,0.0,0.0,0.0,0.0
1490728686702076911,21149,1490728686702076911,,-0.0360717773438,0.0119018554688,-0.433837890625,0.900207519531,0.0,0.0,0.0,0.0,0.0,0.0,0.0,0.0,0.0,0.00252103222222,3.87851111111e-05,0.0,0.0,0.0,0.0,0.0,0.0,0.0,0.0,0.0,0.0,-0.08,0.06,0.23,0.0,0.0,0.0,0.0,0.0,0.0,0.0,0.0,0.0
1490728686737842082,21150,1490728686737842082,,-0.0360717773438,0.0119018554688,-0.433837890625,0.900207519531,0.0,0.0,0.0,0.0,0.0,0.0,0.0,0.0,0.0,-9.69627777778e-05,-0.000116355333333,-5.81776666667e-05,0.0,0.0,0.0,0.0,0.0,0.0,0.0,0.0,0.0,1.31,-0.2,0.14,0.0,0.0,0.0,0.0,0.0,0.0,0.0,0.0,0.0
1490728686768569946,21151,1490728686768569946,,-0.0360717773438,0.011962890625,-0.433837890625,0.900207519531,0.0,0.0,0.0,0.0,0.0,0.0,0.0,0.0,0.0,0.00263738755556,0.000232710666667,3.87851111111e-05,0.0,0.0,0.0,0.0,0.0,0.0,0.0,0.0,0.0,-0.09,-0.2,0.08,0.0,0.0,0.0,0.0,0.0,0.0,0.0,0.0,0.0
1490728686798496007,21152,1490728686798496007,,-0.0359497070312,0.0120239257812,-0.433837890625,0.900207519531,0.0,0.0,0.0,0.0,0.0,0.0,0.0,0.0,0.0,0.00265678011111,0.000135747888889,3.87851111111e-05,0.0,0.0,0.0,0.0,0.0,0.0,0.0,0.0,0.0,-0.17,-0.02,0.3,0.0,0.0,0.0,0.0,0.0,0.0,0.0,0.0,0.0
1490728686832402944,21153,1490728686832402944,,-0.0360107421875,0.0120239257812,-0.433837890625,0.900207519531,0.0,0.0,0.0,0.0,0.0,0.0,0.0,0.0,0.0,0.0,-0.000193925555556,0.000116355333333,0.0,0.0,0.0,0.0,0.0,0.0,0.0,0.0,0.0,-0.06,-0.02,0.2,0.0,0.0,0.0,0.0,0.0,0.0,0.0,0.0,0.0
1490728686865148067,21154,1490728686865148067,,-0.0360107421875,0.0120239257812,-0.433837890625,0.900207519531,0.0,0.0,0.0,0.0,0.0,0.0,0.0,0.0,0.0,-5.81776666667e-05,1.93925555556e-05,5.81776666667e-05,0.0,0.0,0.0,0.0,0.0,0.0,0.0,0.0,0.0,-0.05,-0.07,0.14,0.0,0.0,0.0,0.0,0.0,0.0,0.0,0.0,0.0
1490728686897047042,21155,1490728686897047042,,-0.0360107421875,0.0120239257812,-0.433837890625,0.900207519531,0.0,0.0,0.0,0.0,0.0,0.0,0.0,0.0,0.0,-0.000135747888889,-5.81776666667e-05,5.81776666667e-05,0.0,0.0,0.0,0.0,0.0,0.0,0.0,0.0,0.0,-0.07,-0.08,0.2,0.0,0.0,0.0,0.0,0.0,0.0,0.0,0.0,0.0
1490728686942117929,21156,1490728686942117929,,-0.0360717773438,0.0118408203125,-0.433837890625,0.900207519531,0.0,0.0,0.0,0.0,0.0,0.0,0.0,0.0,0.0,0.00254042477778,-0.000174533,1.93925555556e-05,0.0,0.0,0.0,0.0,0.0,0.0,0.0,0.0,0.0,1.31,-0.09,0.14,0.0,0.0,0.0,0.0,0.0,0.0,0.0,0.0,0.0
1490728686981673002,21157,1490728686981673002,,-0.0360717773438,0.0119018554688,-0.433837890625,0.900207519531,0.0,0.0,0.0,0.0,0.0,0.0,0.0,0.0,0.0,0.00255981733333,0.000213318111111,1.93925555556e-05,0.0,0.0,0.0,0.0,0.0,0.0,0.0,0.0,0.0,-0.05,0.16,0.19,0.0,0.0,0.0,0.0,0.0,0.0,0.0,0.0,0.0
1490728687009366989,21158,1490728687009366989,,-0.0361328125,0.0119018554688,-0.433837890625,0.900207519531,0.0,0.0,0.0,0.0,0.0,0.0,0.0,0.0,0.0,-0.000155140444444,-0.000174533,0.000135747888889,0.0,0.0,0.0,0.0,0.0,0.0,0.0,0.0,0.0,-0.02,-0.27,0.11,0.0,0.0,0.0,0.0,0.0,0.0,0.0,0.0,0.0
1490728687057012081,21159,1490728687057012081,,-0.0362548828125,0.011962890625,-0.433776855469,0.900207519531,0.0,0.0,0.0,0.0,0.0,0.0,0.0,0.0,0.0,0.00257920988889,7.75702222222e-05,5.81776666667e-05,0.0,0.0,0.0,0.0,0.0,0.0,0.0,0.0,0.0,-0.06,-0.12,0.09,0.0,0.0,0.0,0.0,0.0,0.0,0.0,0.0,0.0
1490728687085021972,21160,1490728687085021972,,-0.0362548828125,0.011962890625,-0.433776855469,0.900207519531,0.0,0.0,0.0,0.0,0.0,0.0,0.0,0.0,0.0,7.75702222222e-05,0.000135747888889,0.0,0.0,0.0,0.0,0.0,0.0,0.0,0.0,0.0,0.0,-0.04,-0.05,0.24,0.0,0.0,0.0,0.0,0.0,0.0,0.0,0.0,0.0
1490728687121666908,21161,1490728687121666908,,-0.0440673828125,0.011962890625,-0.433776855469,0.900207519531,0.0,0.0,0.0,0.0,0.0,0.0,0.0,0.0,0.0,0.00257920988889,1.93925555556e-05,1.93925555556e-05,0.0,0.0,0.0,0.0,0.0,0.0,0.0,0.0,0.0,1.31,-0.01,0.08,0.0,0.0,0.0,0.0,0.0,0.0,0.0,0.0,0.0
1490728687147176980,21162,1490728687147176980,,-0.0362548828125,0.011962890625,-0.433776855469,0.900207519531,0.0,0.0,0.0,0.0,0.0,0.0,0.0,0.0,0.0,0.00255981733333,0.000135747888889,-1.93925555556e-05,0.0,0.0,0.0,0.0,0.0,0.0,0.0,0.0,0.0,-0.09,0.07,0.27,0.0,0.0,0.0,0.0,0.0,0.0,0.0,0.0,0.0
1490728687181812047,21163,1490728687181812047,,-0.0362548828125,0.0120239257812,-0.433776855469,0.900207519531,0.0,0.0,0.0,0.0,0.0,0.0,0.0,0.0,0.0,-0.000116355333333,-0.000116355333333,3.87851111111e-05,0.0,0.0,0.0,0.0,0.0,0.0,0.0,0.0,0.0,-0.03,-0.08,0.26,0.0,0.0,0.0,0.0,0.0,0.0,0.0,0.0,0.0
1490728687234468936,21164,1490728687234468936,,-0.0361938476562,0.0120239257812,-0.433837890625,0.900146484375,0.0,0.0,0.0,0.0,0.0,0.0,0.0,0.0,0.0,-3.87851111111e-05,7.75702222222e-05,1.93925555556e-05,0.0,0.0,0.0,0.0,0.0,0.0,0.0,0.0,0.0,-0.08,-0.02,0.18,0.0,0.0,0.0,0.0,0.0,0.0,0.0,0.0,0.0
1490728687278387069,21165,1490728687278387069,,-0.0361938476562,0.0120239257812,-0.433837890625,0.900146484375,0.0,0.0,0.0,0.0,0.0,0.0,0.0,0.0,0.0,-5.81776666667e-05,-0.000155140444444,-1.93925555556e-05,0.0,0.0,0.0,0.0,0.0,0.0,0.0,0.0,0.0,-0.01,-0.08,0.14,0.0,0.0,0.0,0.0,0.0,0.0,0.0,0.0,0.0
1490728687345957040,21166,1490728687345957040,,-0.0361938476562,0.0120849609375,-0.433837890625,0.900146484375,0.0,0.0,0.0,0.0,0.0,0.0,0.0,0.0,0.0,0.00252103222222,0.000116355333333,0.0,0.0,0.0,0.0,0.0,0.0,0.0,0.0,0.0,0.0,-0.03,0.0,0.21,0.0,0.0,0.0,0.0,0.0,0.0,0.0,0.0,0.0
1490728687369128942,21167,1490728687369128942,,-0.0361938476562,0.0120849609375,-0.433776855469,0.900207519531,0.0,0.0,0.0,0.0,0.0,0.0,0.0,0.0,0.0,-0.000174533,-3.87851111111e-05,0.000135747888889,0.0,0.0,0.0,0.0,0.0,0.0,0.0,0.0,0.0,-0.16,-0.06,0.15,0.0,0.0,0.0,0.0,0.0,0.0,0.0,0.0,0.0
1490728687399696111,21168,1490728687399696111,,-0.0362548828125,0.0120849609375,-0.433776855469,0.900207519531,0.0,0.0,0.0,0.0,0.0,0.0,0.0,0.0,0.0,-5.81776666667e-05,-0.000135747888889,1.93925555556e-05,0.0,0.0,0.0,0.0,0.0,0.0,0.0,0.0,0.0,1.28,-0.16,0.16,0.0,0.0,0.0,0.0,0.0,0.0,0.0,0.0,0.0
1490728687428328990,21169,1490728687428328990,,-0.0363159179688,0.0121459960938,-0.433776855469,0.900207519531,0.0,0.0,0.0,0.0,0.0,0.0,0.0,0.0,0.0,9.69627777778e-05,9.69627777778e-05,-5.81776666667e-05,0.0,0.0,0.0,0.0,0.0,0.0,0.0,0.0,0.0,1.29,-0.06,0.15,0.0,0.0,0.0,0.0,0.0,0.0,0.0,0.0,0.0
1490728687457926034,21170,1490728687457926034,,-0.0363159179688,0.0121459960938,-0.433776855469,0.900207519531,0.0,0.0,0.0,0.0,0.0,0.0,0.0,0.0,0.0,-3.87851111111e-05,0.0,-3.87851111111e-05,0.0,0.0,0.0,0.0,0.0,0.0,0.0,0.0,0.0,-0.06,0.0,0.23,0.0,0.0,0.0,0.0,0.0,0.0,0.0,0.0,0.0
1490728687482758045,21171,1490728687482758045,,-0.0362548828125,0.0121459960938,-0.433776855469,0.900207519531,0.0,0.0,0.0,0.0,0.0,0.0,0.0,0.0,0.0,0.00248224711111,-1.93925555556e-05,-1.93925555556e-05,0.0,0.0,0.0,0.0,0.0,0.0,0.0,0.0,0.0,1.28,-0.03,0.19,0.0,0.0,0.0,0.0,0.0,0.0,0.0,0.0,0.0
1490728687510538101,21172,1490728687510538101,,-0.0362548828125,0.0121459960938,-0.433776855469,0.900207519531,0.0,0.0,0.0,0.0,0.0,0.0,0.0,0.0,0.0,0.00254042477778,5.81776666667e-05,-5.81776666667e-05,0.0,0.0,0.0,0.0,0.0,0.0,0.0,0.0,0.0,1.28,0.08,0.2,0.0,0.0,0.0,0.0,0.0,0.0,0.0,0.0,0.0
1490728687560739040,21173,1490728687560739040,,-0.0363159179688,0.01220703125,-0.433776855469,0.900207519531,0.0,0.0,0.0,0.0,0.0,0.0,0.0,0.0,0.0,0.00254042477778,-7.75702222222e-05,-0.000135747888889,0.0,0.0,0.0,0.0,0.0,0.0,0.0,0.0,0.0,1.39,0.15,-0.02,0.0,0.0,0.0,0.0,0.0,0.0,0.0,0.0,0.0
1490728687608119010,21174,1490728687608119010,,-0.0362548828125,0.01220703125,-0.433776855469,0.900207519531,0.0,0.0,0.0,0.0,0.0,0.0,0.0,0.0,0.0,0.00254042477778,1.93925555556e-05,0.000116355333333,0.0,0.0,0.0,0.0,0.0,0.0,0.0,0.0,0.0,1.3,0.06,0.36,0.0,0.0,0.0,0.0,0.0,0.0,0.0,0.0,0.0
1490728687641453981,21175,1490728687641453981,,-0.0363159179688,0.01220703125,-0.433776855469,0.900207519531,0.0,0.0,0.0,0.0,0.0,0.0,0.0,0.0,0.0,-0.000232710666667,-5.81776666667e-05,-3.87851111111e-05,0.0,0.0,0.0,0.0,0.0,0.0,0.0,0.0,0.0,1.28,-0.16,0.14,0.0,0.0,0.0,0.0,0.0,0.0,0.0,0.0,0.0
1490728687700849056,21176,1490728687700849056,,-0.0361328125,0.0121459960938,-0.433776855469,0.900207519531,0.0,0.0,0.0,0.0,0.0,0.0,0.0,0.0,0.0,0.002617995,0.000155140444444,-5.81776666667e-05,0.0,0.0,0.0,0.0,0.0,0.0,0.0,0.0,0.0,-0.07,0.09,0.31,0.0,0.0,0.0,0.0,0.0,0.0,0.0,0.0,0.0
1490728687731147050,21177,1490728687731147050,,-0.0361938476562,0.01220703125,-0.433776855469,0.900207519531,0.0,0.0,0.0,0.0,0.0,0.0,0.0,0.0,0.0,-0.000252103222222,7.75702222222e-05,-1.93925555556e-05,0.0,0.0,0.0,0.0,0.0,0.0,0.0,0.0,0.0,-0.09,-0.18,0.22,0.0,0.0,0.0,0.0,0.0,0.0,0.0,0.0,0.0
1490728687774219036,21178,1490728687774219036,,-0.0363159179688,0.0123291015625,-0.433715820312,0.900207519531,0.0,0.0,0.0,0.0,0.0,0.0,0.0,0.0,0.0,0.002792528,1.93925555556e-05,1.93925555556e-05,0.0,0.0,0.0,0.0,0.0,0.0,0.0,0.0,0.0,-0.01,0.02,0.18,0.0,0.0,0.0,0.0,0.0,0.0,0.0,0.0,0.0
1490728687802875995,21179,1490728687802875995,,-0.0361328125,0.01220703125,-0.433715820312,0.900207519531,0.0,0.0,0.0,0.0,0.0,0.0,0.0,0.0,0.0,0.00257920988889,3.87851111111e-05,-5.81776666667e-05,0.0,0.0,0.0,0.0,0.0,0.0,0.0,0.0,0.0,1.31,0.16,0.33,0.0,0.0,0.0,0.0,0.0,0.0,0.0,0.0,0.0
1490728687845840930,21180,1490728687845840930,,-0.036376953125,0.0123291015625,-0.433715820312,0.900207519531,0.0,0.0,0.0,0.0,0.0,0.0,0.0,0.0,0.0,-0.000135747888889,-5.81776666667e-05,0.000193925555556,0.0,0.0,0.0,0.0,0.0,0.0,0.0,0.0,0.0,-0.04,-0.23,0.13,0.0,0.0,0.0,0.0,0.0,0.0,0.0,0.0,0.0
1490728687875509977,21181,1490728687875509977,,-0.0364379882812,0.0123901367188,-0.433715820312,0.900207519531,0.0,0.0,0.0,0.0,0.0,0.0,0.0,0.0,0.0,0.00265678011111,0.000116355333333,0.0,0.0,0.0,0.0,0.0,0.0,0.0,0.0,0.0,0.0,1.33,-0.02,0.15,0.0,0.0,0.0,0.0,0.0,0.0,0.0,0.0,0.0
1490728687913070917,21182,1490728687913070917,,-0.0364379882812,0.012451171875,-0.433715820312,0.900207519531,0.0,0.0,0.0,0.0,0.0,0.0,0.0,0.0,0.0,-7.75702222222e-05,3.87851111111e-05,5.81776666667e-05,0.0,0.0,0.0,0.0,0.0,0.0,0.0,0.0,0.0,-0.21,-0.16,0.15,0.0,0.0,0.0,0.0,0.0,0.0,0.0,0.0,0.0
1490728687944428920,21183,1490728687944428920,,-0.0364379882812,0.0125122070312,-0.433715820312,0.900207519531,0.0,0.0,0.0,0.0,0.0,0.0,0.0,0.0,0.0,-0.000116355333333,-0.000135747888889,-3.87851111111e-05,0.0,0.0,0.0,0.0,0.0,0.0,0.0,0.0,0.0,-0.04,-0.16,0.16,0.0,0.0,0.0,0.0,0.0,0.0,0.0,0.0,0.0
1490728687969789028,21184,1490728687969789028,,-0.0364379882812,0.0125122070312,-0.433715820312,0.900207519531,0.0,0.0,0.0,0.0,0.0,0.0,0.0,0.0,0.0,0.00267617266667,-1.93925555556e-05,-9.69627777778e-05,0.0,0.0,0.0,0.0,0.0,0.0,0.0,0.0,0.0,1.33,0.0,0.13,0.0,0.0,0.0,0.0,0.0,0.0,0.0,0.0,0.0
1490728688012726068,21185,1490728688012726068,,-0.0364379882812,0.0125122070312,-0.433715820312,0.900207519531,0.0,0.0,0.0,0.0,0.0,0.0,0.0,0.0,0.0,-5.81776666667e-05,3.87851111111e-05,-3.87851111111e-05,0.0,0.0,0.0,0.0,0.0,0.0,0.0,0.0,0.0,-0.08,0.0,0.23,0.0,0.0,0.0,0.0,0.0,0.0,0.0,0.0,0.0
1490728688037005901,21186,1490728688037005901,,-0.0364379882812,0.0125122070312,-0.433715820312,0.900207519531,0.0,0.0,0.0,0.0,0.0,0.0,0.0,0.0,0.0,-7.75702222222e-05,-0.000135747888889,5.81776666667e-05,0.0,0.0,0.0,0.0,0.0,0.0,0.0,0.0,0.0,1.29,-0.1,0.21,0.0,0.0,0.0,0.0,0.0,0.0,0.0,0.0,0.0
1490728688066894054,21187,1490728688066894054,,-0.0364990234375,0.0125122070312,-0.433715820312,0.900207519531,0.0,0.0,0.0,0.0,0.0,0.0,0.0,0.0,0.0,0.00259860244444,3.87851111111e-05,-5.81776666667e-05,0.0,0.0,0.0,0.0,0.0,0.0,0.0,0.0,0.0,1.28,-0.14,0.1,0.0,0.0,0.0,0.0,0.0,0.0,0.0,0.0,0.0
1490728688093101024,21188,1490728688093101024,,-0.0364990234375,0.0125122070312,-0.433715820312,0.900207519531,0.0,0.0,0.0,0.0,0.0,0.0,0.0,0.0,0.0,0.00259860244444,9.69627777778e-05,-1.93925555556e-05,0.0,0.0,0.0,0.0,0.0,0.0,0.0,0.0,0.0,-0.1,-0.04,0.22,0.0,0.0,0.0,0.0,0.0,0.0,0.0,0.0,0.0
1490728688115042924,21189,1490728688115042924,,-0.0364990234375,0.0125122070312,-0.433715820312,0.900207519531,0.0,0.0,0.0,0.0,0.0,0.0,0.0,0.0,0.0,0.00252103222222,3.87851111111e-05,-1.93925555556e-05,0.0,0.0,0.0,0.0,0.0,0.0,0.0,0.0,0.0,-0.05,0.05,0.17,0.0,0.0,0.0,0.0,0.0,0.0,0.0,0.0,0.0
1490728688142716884,21190,1490728688142716884,,-0.0364990234375,0.0125122070312,-0.433715820312,0.900207519531,0.0,0.0,0.0,0.0,0.0,0.0,0.0,0.0,0.0,-0.000155140444444,-0.000193925555556,3.87851111111e-05,0.0,0.0,0.0,0.0,0.0,0.0,0.0,0.0,0.0,1.3,-0.01,0.2,0.0,0.0,0.0,0.0,0.0,0.0,0.0,0.0,0.0
1490728688165568113,21191,1490728688165568113,,-0.0364990234375,0.012451171875,-0.433715820312,0.900207519531,0.0,0.0,0.0,0.0,0.0,0.0,0.0,0.0,0.0,-1.93925555556e-05,0.0,0.0,0.0,0.0,0.0,0.0,0.0,0.0,0.0,0.0,0.0,1.34,-0.03,0.05,0.0,0.0,0.0,0.0,0.0,0.0,0.0,0.0,0.0
1490728688193037986,21192,1490728688193037986,,-0.0364990234375,0.012451171875,-0.433715820312,0.900207519531,0.0,0.0,0.0,0.0,0.0,0.0,0.0,0.0,0.0,0.00250163966667,0.000155140444444,3.87851111111e-05,0.0,0.0,0.0,0.0,0.0,0.0,0.0,0.0,0.0,-0.01,-0.02,0.23,0.0,0.0,0.0,0.0,0.0,0.0,0.0,0.0,0.0
1490728688218767881,21193,1490728688218767881,,-0.0364990234375,0.012451171875,-0.433715820312,0.900207519531,0.0,0.0,0.0,0.0,0.0,0.0,0.0,0.0,0.0,0.00248224711111,3.87851111111e-05,-3.87851111111e-05,0.0,0.0,0.0,0.0,0.0,0.0,0.0,0.0,0.0,-0.05,0.08,0.19,0.0,0.0,0.0,0.0,0.0,0.0,0.0,0.0,0.0
1490728688245374917,21194,1490728688245374917,,-0.0364990234375,0.012451171875,-0.433715820312,0.900207519531,0.0,0.0,0.0,0.0,0.0,0.0,0.0,0.0,0.0,-0.000116355333333,-3.87851111111e-05,-5.81776666667e-05,0.0,0.0,0.0,0.0,0.0,0.0,0.0,0.0,0.0,-0.01,-0.06,0.19,0.0,0.0,0.0,0.0,0.0,0.0,0.0,0.0,0.0
1490728688269928932,21195,1490728688269928932,,-0.0364990234375,0.012451171875,-0.433715820312,0.900207519531,0.0,0.0,0.0,0.0,0.0,0.0,0.0,0.0,0.0,0.00255981733333,-3.87851111111e-05,0.0,0.0,0.0,0.0,0.0,0.0,0.0,0.0,0.0,0.0,-0.01,0.11,0.14,0.0,0.0,0.0,0.0,0.0,0.0,0.0,0.0,0.0
1490728688305923938,21196,1490728688305923938,,-0.0364990234375,0.012451171875,-0.433715820312,0.900207519531,0.0,0.0,0.0,0.0,0.0,0.0,0.0,0.0,0.0,-0.000116355333333,-0.000116355333333,0.0,0.0,0.0,0.0,0.0,0.0,0.0,0.0,0.0,0.0,-0.04,0.03,0.26,0.0,0.0,0.0,0.0,0.0,0.0,0.0,0.0,0.0
1490728688343590021,21197,1490728688343590021,,-0.03662109375,0.012451171875,-0.433654785156,0.900207519531,0.0,0.0,0.0,0.0,0.0,0.0,0.0,0.0,0.0,-0.000135747888889,-0.000116355333333,9.69627777778e-05,0.0,0.0,0.0,0.0,0.0,0.0,0.0,0.0,0.0,0.04,-0.15,0.17,0.0,0.0,0.0,0.0,0.0,0.0,0.0,0.0,0.0
1490728688385881900,21198,1490728688385881900,,-0.03662109375,0.012451171875,-0.433654785156,0.900207519531,0.0,0.0,0.0,0.0,0.0,0.0,0.0,0.0,0.0,0.000232710666667,0.000116355333333,0.0,0.0,0.0,0.0,0.0,0.0,0.0,0.0,0.0,0.0,-0.03,0.05,0.23,0.0,0.0,0.0,0.0,0.0,0.0,0.0,0.0,0.0
1490728688413671016,21199,1490728688413671016,,-0.03662109375,0.0123901367188,-0.433654785156,0.900207519531,0.0,0.0,0.0,0.0,0.0,0.0,0.0,0.0,0.0,0.00250163966667,-1.93925555556e-05,-1.93925555556e-05,0.0,0.0,0.0,0.0,0.0,0.0,0.0,0.0,0.0,-0.06,0.11,0.16,0.0,0.0,0.0,0.0,0.0,0.0,0.0,0.0,0.0
1490728688443523883,21200,1490728688443523883,,-0.03662109375,0.0123901367188,-0.433654785156,0.900207519531,0.0,0.0,0.0,0.0,0.0,0.0,0.0,0.0,0.0,-9.69627777778e-05,-7.75702222222e-05,-5.81776666667e-05,0.0,0.0,0.0,0.0,0.0,0.0,0.0,0.0,0.0,-0.01,-0.13,0.16,0.0,0.0,0.0,0.0,0.0,0.0,0.0,0.0,0.0
1490728688498940944,21201,1490728688498940944,,-0.03662109375,0.0123901367188,-0.433654785156,0.900207519531,0.0,0.0,0.0,0.0,0.0,0.0,0.0,0.0,0.0,-5.81776666667e-05,-5.81776666667e-05,9.69627777778e-05,0.0,0.0,0.0,0.0,0.0,0.0,0.0,0.0,0.0,1.32,-0.17,0.11,0.0,0.0,0.0,0.0,0.0,0.0,0.0,0.0,0.0
1490728688536699056,21202,1490728688536699056,,-0.036376953125,0.012451171875,-0.433715820312,0.900268554688,0.0,0.0,0.0,0.0,0.0,0.0,0.0,0.0,0.0,0.00287009822222,0.000290888333333,-3.87851111111e-05,0.0,0.0,0.0,0.0,0.0,0.0,0.0,0.0,0.0,-0.15,0.19,0.24,0.0,0.0,0.0,0.0,0.0,0.0,0.0,0.0,0.0
1490728688567409992,21203,1490728688567409992,,-0.0362548828125,0.0125122070312,-0.433715820312,0.900268554688,0.0,0.0,0.0,0.0,0.0,0.0,0.0,0.0,0.0,-0.000174533,-9.69627777778e-05,-3.87851111111e-05,0.0,0.0,0.0,0.0,0.0,0.0,0.0,0.0,0.0,-0.14,0.3,0.17,0.0,0.0,0.0,0.0,0.0,0.0,0.0,0.0,0.0
1490728688626133918,21204,1490728688626133918,,-0.036865234375,0.0123901367188,-0.433654785156,0.900207519531,0.0,0.0,0.0,0.0,0.0,0.0,0.0,0.0,0.0,0.000232710666667,1.93925555556e-05,0.0,0.0,0.0,0.0,0.0,0.0,0.0,0.0,0.0,0.0,1.33,-0.26,0.16,0.0,0.0,0.0,0.0,0.0,0.0,0.0,0.0,0.0
1490728688653707027,21205,1490728688653707027,,-0.036376953125,0.01220703125,-0.433654785156,0.900268554688,0.0,0.0,0.0,0.0,0.0,0.0,0.0,0.0,0.0,0.00300584611111,0.000155140444444,-1.93925555556e-05,0.0,0.0,0.0,0.0,0.0,0.0,0.0,0.0,0.0,-0.07,0.29,0.19,0.0,0.0,0.0,0.0,0.0,0.0,0.0,0.0,0.0
1490728688689321994,21206,1490728688689321994,,-0.03662109375,0.0122680664062,-0.433654785156,0.900268554688,0.0,0.0,0.0,0.0,0.0,0.0,0.0,0.0,0.0,-0.000465421333333,-0.000193925555556,3.87851111111e-05,0.0,0.0,0.0,0.0,0.0,0.0,0.0,0.0,0.0,1.3,-0.11,0.12,0.0,0.0,0.0,0.0,0.0,0.0,0.0,0.0,0.0
1490728688734826087,21207,1490728688734826087,,-0.0367431640625,0.0123291015625,-0.433654785156,0.900207519531,0.0,0.0,0.0,0.0,0.0,0.0,0.0,0.0,0.0,-0.000116355333333,-3.87851111111e-05,3.87851111111e-05,0.0,0.0,0.0,0.0,0.0,0.0,0.0,0.0,0.0,1.3,-0.27,0.12,0.0,0.0,0.0,0.0,0.0,0.0,0.0,0.0,0.0
1490728688764271020,21208,1490728688764271020,,-0.0365600585938,0.0122680664062,-0.433654785156,0.900268554688,0.0,0.0,0.0,0.0,0.0,0.0,0.0,0.0,0.0,-0.00230771411111,-1.93925555556e-05,-1.93925555556e-05,0.0,0.0,0.0,0.0,0.0,0.0,0.0,0.0,0.0,-0.06,0.09,0.22,0.0,0.0,0.0,0.0,0.0,0.0,0.0,0.0,0.0
1490728688794089078,21209,1490728688794089078,,-0.0364379882812,0.01220703125,-0.433654785156,0.900268554688,0.0,0.0,0.0,0.0,0.0,0.0,0.0,0.0,0.0,3.87851111111e-05,-0.000116355333333,3.87851111111e-05,0.0,0.0,0.0,0.0,0.0,0.0,0.0,0.0,0.0,-0.02,0.09,0.23,0.0,0.0,0.0,0.0,0.0,0.0,0.0,0.0,0.0
1490728688819713115,21210,1490728688819713115,,-0.0364379882812,0.01220703125,-0.433654785156,0.900268554688,0.0,0.0,0.0,0.0,0.0,0.0,0.0,0.0,0.0,-0.000174533,-7.75702222222e-05,1.93925555556e-05,0.0,0.0,0.0,0.0,0.0,0.0,0.0,0.0,0.0,1.3,-0.02,0.09,0.0,0.0,0.0,0.0,0.0,0.0,0.0,0.0,0.0
1490728688855257034,21211,1490728688855257034,,-0.0364379882812,0.01220703125,-0.433654785156,0.900268554688,0.0,0.0,0.0,0.0,0.0,0.0,0.0,0.0,0.0,-1.93925555556e-05,-1.93925555556e-05,-1.93925555556e-05,0.0,0.0,0.0,0.0,0.0,0.0,0.0,0.0,0.0,-0.01,-0.14,0.23,0.0,0.0,0.0,0.0,0.0,0.0,0.0,0.0,0.0
1490728688892865896,21212,1490728688892865896,,-0.0364379882812,0.01220703125,-0.433654785156,0.900268554688,0.0,0.0,0.0,0.0,0.0,0.0,0.0,0.0,0.0,0.00248224711111,0.0,3.87851111111e-05,0.0,0.0,0.0,0.0,0.0,0.0,0.0,0.0,0.0,-0.05,-0.11,0.15,0.0,0.0,0.0,0.0,0.0,0.0,0.0,0.0,0.0
1490728688926754951,21213,1490728688926754951,,-0.036376953125,0.0121459960938,-0.433654785156,0.900268554688,0.0,0.0,0.0,0.0,0.0,0.0,0.0,0.0,0.0,0.00255981733333,3.87851111111e-05,-1.93925555556e-05,0.0,0.0,0.0,0.0,0.0,0.0,0.0,0.0,0.0,-0.04,0.14,0.22,0.0,0.0,0.0,0.0,0.0,0.0,0.0,0.0,0.0
1490728688974368095,21214,1490728688974368095,,-0.0364379882812,0.01220703125,-0.433654785156,0.900268554688,0.0,0.0,0.0,0.0,0.0,0.0,0.0,0.0,0.0,-0.000213318111111,-9.69627777778e-05,-1.93925555556e-05,0.0,0.0,0.0,0.0,0.0,0.0,0.0,0.0,0.0,1.29,-0.22,0.17,0.0,0.0,0.0,0.0,0.0,0.0,0.0,0.0,0.0
1490728689021763086,21215,1490728689021763086,,-0.0364990234375,0.01220703125,-0.433654785156,0.900268554688,0.0,0.0,0.0,0.0,0.0,0.0,0.0,0.0,0.0,0.002617995,3.87851111111e-05,-5.81776666667e-05,0.0,0.0,0.0,0.0,0.0,0.0,0.0,0.0,0.0,-0.1,0.0,0.19,0.0,0.0,0.0,0.0,0.0,0.0,0.0,0.0,0.0
1490728689046780109,21216,1490728689046780109,,-0.036376953125,0.0121459960938,-0.433654785156,0.900268554688,0.0,0.0,0.0,0.0,0.0,0.0,0.0,0.0,0.0,0.00265678011111,-3.87851111111e-05,-3.87851111111e-05,0.0,0.0,0.0,0.0,0.0,0.0,0.0,0.0,0.0,-0.12,0.15,0.31,0.0,0.0,0.0,0.0,0.0,0.0,0.0,0.0,0.0
1490728689080279111,21217,1490728689080279111,,-0.0364990234375,0.0120849609375,-0.433654785156,0.900268554688,0.0,0.0,0.0,0.0,0.0,0.0,0.0,0.0,0.0,-0.000193925555556,-0.000135747888889,-3.87851111111e-05,0.0,0.0,0.0,0.0,0.0,0.0,0.0,0.0,0.0,1.34,-0.05,0.24,0.0,0.0,0.0,0.0,0.0,0.0,0.0,0.0,0.0
1490728689123704910,21218,1490728689123704910,,-0.0365600585938,0.0121459960938,-0.433654785156,0.900268554688,0.0,0.0,0.0,0.0,0.0,0.0,0.0,0.0,0.0,0.00267617266667,9.69627777778e-05,-1.93925555556e-05,0.0,0.0,0.0,0.0,0.0,0.0,0.0,0.0,0.0,-0.02,-0.04,0.19,0.0,0.0,0.0,0.0,0.0,0.0,0.0,0.0,0.0
1490728689194653987,21219,1490728689194653987,,-0.0364379882812,0.0120849609375,-0.433654785156,0.900268554688,0.0,0.0,0.0,0.0,0.0,0.0,0.0,0.0,0.0,-7.75702222222e-05,-3.87851111111e-05,0.0,0.0,0.0,0.0,0.0,0.0,0.0,0.0,0.0,0.0,-0.07,0.03,0.23,0.0,0.0,0.0,0.0,0.0,0.0,0.0,0.0,0.0
1490728689252821922,21220,1490728689252821922,,-0.0366821289062,0.011962890625,-0.433654785156,0.900268554688,0.0,0.0,0.0,0.0,0.0,0.0,0.0,0.0,0.0,-3.87851111111e-05,-7.75702222222e-05,1.93925555556e-05,0.0,0.0,0.0,0.0,0.0,0.0,0.0,0.0,0.0,1.31,-0.11,0.12,0.0,0.0,0.0,0.0,0.0,0.0,0.0,0.0,0.0
1490728689278135061,21221,1490728689278135061,,-0.0365600585938,0.0119018554688,-0.433654785156,0.900268554688,0.0,0.0,0.0,0.0,0.0,0.0,0.0,0.0,0.0,0.00273435033333,0.000155140444444,0.0,0.0,0.0,0.0,0.0,0.0,0.0,0.0,0.0,0.0,-0.05,0.05,0.23,0.0,0.0,0.0,0.0,0.0,0.0,0.0,0.0,0.0
1490728689314982891,21222,1490728689314982891,,-0.0364990234375,0.0119018554688,-0.433654785156,0.900268554688,0.0,0.0,0.0,0.0,0.0,0.0,0.0,0.0,0.0,0.00254042477778,3.87851111111e-05,-1.93925555556e-05,0.0,0.0,0.0,0.0,0.0,0.0,0.0,0.0,0.0,-0.02,0.0,0.22,0.0,0.0,0.0,0.0,0.0,0.0,0.0,0.0,0.0
1490728689364469051,21223,1490728689364469051,,-0.0364990234375,0.0119018554688,-0.433654785156,0.900268554688,0.0,0.0,0.0,0.0,0.0,0.0,0.0,0.0,0.0,-1.93925555556e-05,-3.87851111111e-05,0.0,0.0,0.0,0.0,0.0,0.0,0.0,0.0,0.0,0.0,-0.01,-0.17,0.1,0.0,0.0,0.0,0.0,0.0,0.0,0.0,0.0,0.0
1490728689425551891,21224,1490728689425551891,,-0.036376953125,0.0118408203125,-0.433654785156,0.900268554688,0.0,0.0,0.0,0.0,0.0,0.0,0.0,0.0,0.0,0.00259860244444,-1.93925555556e-05,1.93925555556e-05,0.0,0.0,0.0,0.0,0.0,0.0,0.0,0.0,0.0,-0.08,0.11,0.19,0.0,0.0,0.0,0.0,0.0,0.0,0.0,0.0,0.0
1490728689451833963,21225,1490728689451833963,,-0.036376953125,0.0118408203125,-0.433654785156,0.900268554688,0.0,0.0,0.0,0.0,0.0,0.0,0.0,0.0,0.0,-7.75702222222e-05,-9.69627777778e-05,-1.93925555556e-05,0.0,0.0,0.0,0.0,0.0,0.0,0.0,0.0,0.0,-0.01,0.03,0.23,0.0,0.0,0.0,0.0,0.0,0.0,0.0,0.0,0.0
1490728689492830038,21226,1490728689492830038,,-0.0364990234375,0.0119018554688,-0.433654785156,0.900268554688,0.0,0.0,0.0,0.0,0.0,0.0,0.0,0.0,0.0,-5.81776666667e-05,0.0,0.0,0.0,0.0,0.0,0.0,0.0,0.0,0.0,0.0,0.0,-0.02,-0.13,0.16,0.0,0.0,0.0,0.0,0.0,0.0,0.0,0.0,0.0
1490728689528495073,21227,1490728689528495073,,-0.0364379882812,0.0118408203125,-0.433654785156,0.900268554688,0.0,0.0,0.0,0.0,0.0,0.0,0.0,0.0,0.0,0.00259860244444,3.87851111111e-05,0.0,0.0,0.0,0.0,0.0,0.0,0.0,0.0,0.0,0.0,-0.11,0.04,0.24,0.0,0.0,0.0,0.0,0.0,0.0,0.0,0.0,0.0
1490728689571000099,21228,1490728689571000099,,-0.0364379882812,0.0118408203125,-0.433654785156,0.900268554688,0.0,0.0,0.0,0.0,0.0,0.0,0.0,0.0,0.0,-0.000135747888889,-0.000116355333333,1.93925555556e-05,0.0,0.0,0.0,0.0,0.0,0.0,0.0,0.0,0.0,0.0,-0.03,0.11,0.0,0.0,0.0,0.0,0.0,0.0,0.0,0.0,0.0
1490728689606472015,21229,1490728689606472015,,-0.0364379882812,0.0118408203125,-0.433654785156,0.900268554688,0.0,0.0,0.0,0.0,0.0,0.0,0.0,0.0,0.0,0.00254042477778,1.93925555556e-05,-1.93925555556e-05,0.0,0.0,0.0,0.0,0.0,0.0,0.0,0.0,0.0,0.01,-0.1,0.17,0.0,0.0,0.0,0.0,0.0,0.0,0.0,0.0,0.0
1490728689632853031,21230,1490728689632853031,,-0.0364379882812,0.0118408203125,-0.433654785156,0.900268554688,0.0,0.0,0.0,0.0,0.0,0.0,0.0,0.0,0.0,0.00257920988889,9.69627777778e-05,0.0,0.0,0.0,0.0,0.0,0.0,0.0,0.0,0.0,0.0,-0.06,0.03,0.22,0.0,0.0,0.0,0.0,0.0,0.0,0.0,0.0,0.0
1490728689665414094,21231,1490728689665414094,,-0.0364379882812,0.0118408203125,-0.433654785156,0.900268554688,0.0,0.0,0.0,0.0,0.0,0.0,0.0,0.0,0.0,0.00250163966667,-0.000116355333333,1.93925555556e-05,0.0,0.0,0.0,0.0,0.0,0.0,0.0,0.0,0.0,-0.09,0.04,0.14,0.0,0.0,0.0,0.0,0.0,0.0,0.0,0.0,0.0
1490728689701102018,21232,1490728689701102018,,-0.0364379882812,0.0118408203125,-0.433654785156,0.900268554688,0.0,0.0,0.0,0.0,0.0,0.0,0.0,0.0,0.0,-0.000135747888889,-7.75702222222e-05,1.93925555556e-05,0.0,0.0,0.0,0.0,0.0,0.0,0.0,0.0,0.0,1.28,-0.06,0.22,0.0,0.0,0.0,0.0,0.0,0.0,0.0,0.0,0.0
1490728689726583003,21233,1490728689726583003,,-0.0364379882812,0.0118408203125,-0.433654785156,0.900268554688,0.0,0.0,0.0,0.0,0.0,0.0,0.0,0.0,0.0,-9.69627777778e-05,-1.93925555556e-05,1.93925555556e-05,0.0,0.0,0.0,0.0,0.0,0.0,0.0,0.0,0.0,0.01,-0.18,0.09,0.0,0.0,0.0,0.0,0.0,0.0,0.0,0.0,0.0
1490728689764734029,21234,1490728689764734029,,-0.036376953125,0.0118408203125,-0.433654785156,0.900268554688,0.0,0.0,0.0,0.0,0.0,0.0,0.0,0.0,0.0,0.000232710666667,7.75702222222e-05,0.0,0.0,0.0,0.0,0.0,0.0,0.0,0.0,0.0,0.0,-0.11,0.08,0.12,0.0,0.0,0.0,0.0,0.0,0.0,0.0,0.0,0.0
1490728689794761896,21235,1490728689794761896,,-0.0361938476562,0.01171875,-0.433654785156,0.900268554688,0.0,0.0,0.0,0.0,0.0,0.0,0.0,0.0,0.0,0.00273435033333,-1.93925555556e-05,-1.93925555556e-05,0.0,0.0,0.0,0.0,0.0,0.0,0.0,0.0,0.0,-0.1,0.22,0.36,0.0,0.0,0.0,0.0,0.0,0.0,0.0,0.0,0.0
1490728689823088884,21236,1490728689823088884,,-0.0363159179688,0.0117797851562,-0.433654785156,0.900268554688,0.0,0.0,0.0,0.0,0.0,0.0,0.0,0.0,0.0,-0.000368458555556,-9.69627777778e-05,0.0,0.0,0.0,0.0,0.0,0.0,0.0,0.0,0.0,0.0,-0.01,0.03,0.18,0.0,0.0,0.0,0.0,0.0,0.0,0.0,0.0,0.0
1490728689851239919,21237,1490728689851239919,,-0.03662109375,0.0118408203125,-0.433654785156,0.900268554688,0.0,0.0,0.0,0.0,0.0,0.0,0.0,0.0,0.0,-0.000232710666667,-0.000116355333333,5.81776666667e-05,0.0,0.0,0.0,0.0,0.0,0.0,0.0,0.0,0.0,1.32,-0.44,0.1,0.0,0.0,0.0,0.0,0.0,0.0,0.0,0.0,0.0
1490728689884211063,21238,1490728689884211063,,-0.0364379882812,0.01171875,-0.433654785156,0.900268554688,0.0,0.0,0.0,0.0,0.0,0.0,0.0,0.0,0.0,0.00298645355556,5.81776666667e-05,0.0,0.0,0.0,0.0,0.0,0.0,0.0,0.0,0.0,0.0,-0.07,0.09,0.22,0.0,0.0,0.0,0.0,0.0,0.0,0.0,0.0,0.0
1490728689913686037,21239,1490728689913686037,,-0.0361328125,0.0115966796875,-0.433654785156,0.900268554688,0.0,0.0,0.0,0.0,0.0,0.0,0.0,0.0,0.0,0.00271495777778,0.000135747888889,-1.93925555556e-05,0.0,0.0,0.0,0.0,0.0,0.0,0.0,0.0,0.0,-0.08,0.35,0.27,0.0,0.0,0.0,0.0,0.0,0.0,0.0,0.0,0.0
1490728689940424919,21240,1490728689940424919,,-0.0363159179688,0.0116577148438,-0.433654785156,0.900268554688,0.0,0.0,0.0,0.0,0.0,0.0,0.0,0.0,0.0,-0.000446028777778,-0.000116355333333,-1.93925555556e-05,0.0,0.0,0.0,0.0,0.0,0.0,0.0,0.0,0.0,-0.05,-0.03,0.24,0.0,0.0,0.0,0.0,0.0,0.0,0.0,0.0,0.0
1490728690004271984,21241,1490728690004271984,,-0.0364990234375,0.0116577148438,-0.433654785156,0.900268554688,0.0,0.0,0.0,0.0,0.0,0.0,0.0,0.0,0.0,0.00287009822222,0.000116355333333,-1.93925555556e-05,0.0,0.0,0.0,0.0,0.0,0.0,0.0,0.0,0.0,-0.03,0.02,0.23,0.0,0.0,0.0,0.0,0.0,0.0,0.0,0.0,0.0
1490728690048472881,21242,1490728690048472881,,-0.0362548828125,0.0115356445312,-0.433654785156,0.900268554688,0.0,0.0,0.0,0.0,0.0,0.0,0.0,0.0,0.0,-0.000135747888889,-3.87851111111e-05,1.93925555556e-05,0.0,0.0,0.0,0.0,0.0,0.0,0.0,0.0,0.0,-0.1,0.16,0.31,0.0,0.0,0.0,0.0,0.0,0.0,0.0,0.0,0.0
1490728690082248926,21243,1490728690082248926,,-0.0364990234375,0.0116577148438,-0.433654785156,0.900268554688,0.0,0.0,0.0,0.0,0.0,0.0,0.0,0.0,0.0,-0.000252103222222,-0.000135747888889,1.93925555556e-05,0.0,0.0,0.0,0.0,0.0,0.0,0.0,0.0,0.0,1.33,-0.26,0.14,0.0,0.0,0.0,0.0,0.0,0.0,0.0,0.0,0.0
1490728690128448009,21244,1490728690128448009,,-0.0364379882812,0.0115966796875,-0.433654785156,0.900268554688,0.0,0.0,0.0,0.0,0.0,0.0,0.0,0.0,0.0,0.00273435033333,9.69627777778e-05,-5.81776666667e-05,0.0,0.0,0.0,0.0,0.0,0.0,0.0,0.0,0.0,-0.06,0.01,0.21,0.0,0.0,0.0,0.0,0.0,0.0,0.0,0.0,0.0
1490728690168442010,21245,1490728690168442010,,-0.0363159179688,0.0115356445312,-0.433654785156,0.900268554688,0.0,0.0,0.0,0.0,0.0,0.0,0.0,0.0,0.0,-1.93925555556e-05,-0.000116355333333,3.87851111111e-05,0.0,0.0,0.0,0.0,0.0,0.0,0.0,0.0,0.0,-0.06,0.09,0.15,0.0,0.0,0.0,0.0,0.0,0.0,0.0,0.0,0.0
1490728690201181888,21246,1490728690201181888,,-0.0363159179688,0.0115356445312,-0.433654785156,0.900268554688,0.0,0.0,0.0,0.0,0.0,0.0,0.0,0.0,0.0,-0.000174533,-7.75702222222e-05,0.0,0.0,0.0,0.0,0.0,0.0,0.0,0.0,0.0,0.0,1.29,-0.12,0.13,0.0,0.0,0.0,0.0,0.0,0.0,0.0,0.0,0.0
1490728690228004932,21247,1490728690228004932,,-0.0363159179688,0.0115356445312,-0.433654785156,0.900268554688,0.0,0.0,0.0,0.0,0.0,0.0,0.0,0.0,0.0,-1.93925555556e-05,3.87851111111e-05,0.0,0.0,0.0,0.0,0.0,0.0,0.0,0.0,0.0,0.0,-0.02,-0.19,0.14,0.0,0.0,0.0,0.0,0.0,0.0,0.0,0.0,0.0
1490728690252281904,21248,1490728690252281904,,-0.0363159179688,0.0115356445312,-0.433654785156,0.900268554688,0.0,0.0,0.0,0.0,0.0,0.0,0.0,0.0,0.0,0.00257920988889,1.93925555556e-05,0.0,0.0,0.0,0.0,0.0,0.0,0.0,0.0,0.0,0.0,-0.07,-0.1,0.18,0.0,0.0,0.0,0.0,0.0,0.0,0.0,0.0,0.0
1490728690281333923,21249,1490728690281333923,,-0.0363159179688,0.0115356445312,-0.433654785156,0.900268554688,0.0,0.0,0.0,0.0,0.0,0.0,0.0,0.0,0.0,0.00257920988889,-1.93925555556e-05,-1.93925555556e-05,0.0,0.0,0.0,0.0,0.0,0.0,0.0,0.0,0.0,-0.04,0.06,0.26,0.0,0.0,0.0,0.0,0.0,0.0,0.0,0.0,0.0
1490728690321696043,21250,1490728690321696043,,-0.0363159179688,0.0115356445312,-0.433654785156,0.900268554688,0.0,0.0,0.0,0.0,0.0,0.0,0.0,0.0,0.0,-9.69627777778e-05,-7.75702222222e-05,1.93925555556e-05,0.0,0.0,0.0,0.0,0.0,0.0,0.0,0.0,0.0,-0.01,0.0,0.11,0.0,0.0,0.0,0.0,0.0,0.0,0.0,0.0,0.0
1490728690346052885,21251,1490728690346052885,,-0.0363159179688,0.0115356445312,-0.433654785156,0.900268554688,0.0,0.0,0.0,0.0,0.0,0.0,0.0,0.0,0.0,-0.000135747888889,1.93925555556e-05,-1.93925555556e-05,0.0,0.0,0.0,0.0,0.0,0.0,0.0,0.0,0.0,-0.02,-0.17,0.19,0.0,0.0,0.0,0.0,0.0,0.0,0.0,0.0,0.0
1490728690375313043,21252,1490728690375313043,,-0.0363159179688,0.0115356445312,-0.433654785156,0.900268554688,0.0,0.0,0.0,0.0,0.0,0.0,0.0,0.0,0.0,0.00252103222222,-1.93925555556e-05,-1.93925555556e-05,0.0,0.0,0.0,0.0,0.0,0.0,0.0,0.0,0.0,-0.06,-0.08,0.15,0.0,0.0,0.0,0.0,0.0,0.0,0.0,0.0,0.0
1490728690410656929,21253,1490728690410656929,,-0.0363159179688,0.0115356445312,-0.433654785156,0.900268554688,0.0,0.0,0.0,0.0,0.0,0.0,0.0,0.0,0.0,0.00265678011111,-1.93925555556e-05,0.0,0.0,0.0,0.0,0.0,0.0,0.0,0.0,0.0,0.0,-0.03,0.07,0.23,0.0,0.0,0.0,0.0,0.0,0.0,0.0,0.0,0.0
1490728690438493967,21254,1490728690438493967,,-0.0363159179688,0.0115356445312,-0.433654785156,0.900268554688,0.0,0.0,0.0,0.0,0.0,0.0,0.0,0.0,0.0,-1.93925555556e-05,-3.87851111111e-05,1.93925555556e-05,0.0,0.0,0.0,0.0,0.0,0.0,0.0,0.0,0.0,-0.06,0.0,0.22,0.0,0.0,0.0,0.0,0.0,0.0,0.0,0.0,0.0
1490728690465281963,21255,1490728690465281963,,-0.0363159179688,0.0115356445312,-0.433654785156,0.900268554688,0.0,0.0,0.0,0.0,0.0,0.0,0.0,0.0,0.0,-0.000155140444444,-5.81776666667e-05,-1.93925555556e-05,0.0,0.0,0.0,0.0,0.0,0.0,0.0,0.0,0.0,-0.01,-0.15,0.08,0.0,0.0,0.0,0.0,0.0,0.0,0.0,0.0,0.0
1490728690496714115,21256,1490728690496714115,,-0.0363159179688,0.0115356445312,-0.433654785156,0.900268554688,0.0,0.0,0.0,0.0,0.0,0.0,0.0,0.0,0.0,0.00252103222222,-7.75702222222e-05,1.93925555556e-05,0.0,0.0,0.0,0.0,0.0,0.0,0.0,0.0,0.0,1.29,-0.14,0.21,0.0,0.0,0.0,0.0,0.0,0.0,0.0,0.0,0.0
1490728690524223089,21257,1490728690524223089,,-0.0363159179688,0.0115356445312,-0.433654785156,0.900268554688,0.0,0.0,0.0,0.0,0.0,0.0,0.0,0.0,0.0,0.00263738755556,5.81776666667e-05,0.0,0.0,0.0,0.0,0.0,0.0,0.0,0.0,0.0,0.0,-0.06,0.06,0.18,0.0,0.0,0.0,0.0,0.0,0.0,0.0,0.0,0.0
1490728690551989078,21258,1490728690551989078,,-0.0363159179688,0.0115356445312,-0.433654785156,0.900268554688,0.0,0.0,0.0,0.0,0.0,0.0,0.0,0.0,0.0,-1.93925555556e-05,0.0,0.0,0.0,0.0,0.0,0.0,0.0,0.0,0.0,0.0,0.0,-0.09,0.04,0.31,0.0,0.0,0.0,0.0,0.0,0.0,0.0,0.0,0.0
1490728690582336902,21259,1490728690582336902,,-0.0363159179688,0.0115356445312,-0.433654785156,0.900268554688,0.0,0.0,0.0,0.0,0.0,0.0,0.0,0.0,0.0,-0.000155140444444,-7.75702222222e-05,1.93925555556e-05,0.0,0.0,0.0,0.0,0.0,0.0,0.0,0.0,0.0,-0.02,-0.09,0.12,0.0,0.0,0.0,0.0,0.0,0.0,0.0,0.0,0.0
1490728690621980905,21260,1490728690621980905,,-0.0363159179688,0.0115356445312,-0.433654785156,0.900268554688,0.0,0.0,0.0,0.0,0.0,0.0,0.0,0.0,0.0,0.00265678011111,3.87851111111e-05,-1.93925555556e-05,0.0,0.0,0.0,0.0,0.0,0.0,0.0,0.0,0.0,-0.02,0.05,0.19,0.0,0.0,0.0,0.0,0.0,0.0,0.0,0.0,0.0
1490728690666711091,21261,1490728690666711091,,-0.0363159179688,0.0115356445312,-0.433654785156,0.900268554688,0.0,0.0,0.0,0.0,0.0,0.0,0.0,0.0,0.0,-7.75702222222e-05,-9.69627777778e-05,5.81776666667e-05,0.0,0.0,0.0,0.0,0.0,0.0,0.0,0.0,0.0,-0.03,-0.01,0.15,0.0,0.0,0.0,0.0,0.0,0.0,0.0,0.0,0.0
1490728690692445993,21262,1490728690692445993,,-0.0363159179688,0.0115356445312,-0.433654785156,0.900268554688,0.0,0.0,0.0,0.0,0.0,0.0,0.0,0.0,0.0,-0.000135747888889,-3.87851111111e-05,0.0,0.0,0.0,0.0,0.0,0.0,0.0,0.0,0.0,0.0,1.29,-0.06,0.17,0.0,0.0,0.0,0.0,0.0,0.0,0.0,0.0,0.0
1490728690718316078,21263,1490728690718316078,,-0.0363159179688,0.0115356445312,-0.433654785156,0.900268554688,0.0,0.0,0.0,0.0,0.0,0.0,0.0,0.0,0.0,0.00252103222222,1.93925555556e-05,-3.87851111111e-05,0.0,0.0,0.0,0.0,0.0,0.0,0.0,0.0,0.0,-0.06,-0.12,0.12,0.0,0.0,0.0,0.0,0.0,0.0,0.0,0.0,0.0
1490728690774890899,21264,1490728690774890899,,-0.0363159179688,0.0115356445312,-0.433654785156,0.900268554688,0.0,0.0,0.0,0.0,0.0,0.0,0.0,0.0,0.0,0.00255981733333,-0.000116355333333,1.93925555556e-05,0.0,0.0,0.0,0.0,0.0,0.0,0.0,0.0,0.0,-0.01,0.01,0.17,0.0,0.0,0.0,0.0,0.0,0.0,0.0,0.0,0.0
1490728690804124116,21265,1490728690804124116,,-0.0363159179688,0.0115356445312,-0.433654785156,0.900268554688,0.0,0.0,0.0,0.0,0.0,0.0,0.0,0.0,0.0,-7.75702222222e-05,-1.93925555556e-05,0.0,0.0,0.0,0.0,0.0,0.0,0.0,0.0,0.0,0.0,-0.01,-0.02,0.17,0.0,0.0,0.0,0.0,0.0,0.0,0.0,0.0,0.0
1490728690846048116,21266,1490728690846048116,,-0.0363159179688,0.0115356445312,-0.433654785156,0.900268554688,0.0,0.0,0.0,0.0,0.0,0.0,0.0,0.0,0.0,5.81776666667e-05,-1.93925555556e-05,1.93925555556e-05,0.0,0.0,0.0,0.0,0.0,0.0,0.0,0.0,0.0,-0.03,-0.08,0.22,0.0,0.0,0.0,0.0,0.0,0.0,0.0,0.0,0.0
1490728690877037048,21267,1490728690877037048,,-0.0363159179688,0.0115356445312,-0.433654785156,0.900268554688,0.0,0.0,0.0,0.0,0.0,0.0,0.0,0.0,0.0,-1.93925555556e-05,-5.81776666667e-05,0.0,0.0,0.0,0.0,0.0,0.0,0.0,0.0,0.0,0.0,-0.01,-0.05,0.15,0.0,0.0,0.0,0.0,0.0,0.0,0.0,0.0,0.0
1490728690913634061,21268,1490728690913634061,,-0.0363159179688,0.0115356445312,-0.433654785156,0.900268554688,0.0,0.0,0.0,0.0,0.0,0.0,0.0,0.0,0.0,0.00252103222222,9.69627777778e-05,-1.93925555556e-05,0.0,0.0,0.0,0.0,0.0,0.0,0.0,0.0,0.0,-0.04,-0.01,0.19,0.0,0.0,0.0,0.0,0.0,0.0,0.0,0.0,0.0
1490728690947809934,21269,1490728690947809934,,-0.0363159179688,0.0115356445312,-0.433654785156,0.900268554688,0.0,0.0,0.0,0.0,0.0,0.0,0.0,0.0,0.0,0.00252103222222,1.93925555556e-05,-1.93925555556e-05,0.0,0.0,0.0,0.0,0.0,0.0,0.0,0.0,0.0,-0.09,0.0,0.22,0.0,0.0,0.0,0.0,0.0,0.0,0.0,0.0,0.0
1490728690973851919,21270,1490728690973851919,,-0.0363159179688,0.0115356445312,-0.433654785156,0.900268554688,0.0,0.0,0.0,0.0,0.0,0.0,0.0,0.0,0.0,-3.87851111111e-05,-3.87851111111e-05,3.87851111111e-05,0.0,0.0,0.0,0.0,0.0,0.0,0.0,0.0,0.0,0.0,-0.05,0.14,0.0,0.0,0.0,0.0,0.0,0.0,0.0,0.0,0.0
1490728691015753984,21271,1490728691015753984,,-0.0363159179688,0.0115356445312,-0.433654785156,0.900268554688,0.0,0.0,0.0,0.0,0.0,0.0,0.0,0.0,0.0,0.00254042477778,0.000116355333333,-1.93925555556e-05,0.0,0.0,0.0,0.0,0.0,0.0,0.0,0.0,0.0,1.28,-0.06,0.13,0.0,0.0,0.0,0.0,0.0,0.0,0.0,0.0,0.0
1490728691049490928,21272,1490728691049490928,,-0.0363159179688,0.0115356445312,-0.433654785156,0.900268554688,0.0,0.0,0.0,0.0,0.0,0.0,0.0,0.0,0.0,7.75702222222e-05,7.75702222222e-05,0.0,0.0,0.0,0.0,0.0,0.0,0.0,0.0,0.0,0.0,-0.1,0.0,0.27,0.0,0.0,0.0,0.0,0.0,0.0,0.0,0.0,0.0
1490728691085046052,21273,1490728691085046052,,-0.0363159179688,0.0115356445312,-0.433654785156,0.900268554688,0.0,0.0,0.0,0.0,0.0,0.0,0.0,0.0,0.0,-7.75702222222e-05,-5.81776666667e-05,1.93925555556e-05,0.0,0.0,0.0,0.0,0.0,0.0,0.0,0.0,0.0,1.28,-0.04,0.13,0.0,0.0,0.0,0.0,0.0,0.0,0.0,0.0,0.0
1490728691115727901,21274,1490728691115727901,,-0.0363159179688,0.0115356445312,-0.433654785156,0.900268554688,0.0,0.0,0.0,0.0,0.0,0.0,0.0,0.0,0.0,-7.75702222222e-05,0.0,3.87851111111e-05,0.0,0.0,0.0,0.0,0.0,0.0,0.0,0.0,0.0,1.28,-0.12,0.1,0.0,0.0,0.0,0.0,0.0,0.0,0.0,0.0,0.0
1490728691140691995,21275,1490728691140691995,,-0.0363159179688,0.0115356445312,-0.433654785156,0.900268554688,0.0,0.0,0.0,0.0,0.0,0.0,0.0,0.0,0.0,0.00255981733333,0.000116355333333,0.0,0.0,0.0,0.0,0.0,0.0,0.0,0.0,0.0,0.0,-0.06,-0.08,0.2,0.0,0.0,0.0,0.0,0.0,0.0,0.0,0.0,0.0
1490728691169610023,21276,1490728691169610023,,-0.0363159179688,0.0115356445312,-0.433654785156,0.900268554688,0.0,0.0,0.0,0.0,0.0,0.0,0.0,0.0,0.0,0.00259860244444,7.75702222222e-05,-3.87851111111e-05,0.0,0.0,0.0,0.0,0.0,0.0,0.0,0.0,0.0,-0.07,0.03,0.13,0.0,0.0,0.0,0.0,0.0,0.0,0.0,0.0,0.0
1490728691195251941,21277,1490728691195251941,,-0.0363159179688,0.0115356445312,-0.433654785156,0.900268554688,0.0,0.0,0.0,0.0,0.0,0.0,0.0,0.0,0.0,0.00252103222222,-1.93925555556e-05,1.93925555556e-05,0.0,0.0,0.0,0.0,0.0,0.0,0.0,0.0,0.0,-0.06,0.0,0.27,0.0,0.0,0.0,0.0,0.0,0.0,0.0,0.0,0.0
1490728691227529048,21278,1490728691227529048,,-0.0363159179688,0.0115356445312,-0.433654785156,0.900268554688,0.0,0.0,0.0,0.0,0.0,0.0,0.0,0.0,0.0,-3.87851111111e-05,3.87851111111e-05,3.87851111111e-05,0.0,0.0,0.0,0.0,0.0,0.0,0.0,0.0,0.0,-0.03,-0.06,0.13,0.0,0.0,0.0,0.0,0.0,0.0,0.0,0.0,0.0
1490728691252234935,21279,1490728691252234935,,-0.0363159179688,0.0115356445312,-0.433654785156,0.900268554688,0.0,0.0,0.0,0.0,0.0,0.0,0.0,0.0,0.0,-3.87851111111e-05,1.93925555556e-05,5.81776666667e-05,0.0,0.0,0.0,0.0,0.0,0.0,0.0,0.0,0.0,-0.07,-0.14,0.27,0.0,0.0,0.0,0.0,0.0,0.0,0.0,0.0,0.0
1490728691298346042,21280,1490728691298346042,,-0.0363159179688,0.0115356445312,-0.433654785156,0.900268554688,0.0,0.0,0.0,0.0,0.0,0.0,0.0,0.0,0.0,0.002617995,5.81776666667e-05,0.0,0.0,0.0,0.0,0.0,0.0,0.0,0.0,0.0,0.0,-0.06,-0.01,0.25,0.0,0.0,0.0,0.0,0.0,0.0,0.0,0.0,0.0
1490728691341324090,21281,1490728691341324090,,-0.0441284179688,0.0115356445312,-0.433654785156,0.900268554688,0.0,0.0,0.0,0.0,0.0,0.0,0.0,0.0,0.0,-1.93925555556e-05,1.93925555556e-05,0.0,0.0,0.0,0.0,0.0,0.0,0.0,0.0,0.0,0.0,-0.05,-0.05,0.23,0.0,0.0,0.0,0.0,0.0,0.0,0.0,0.0,0.0
1490728691383208990,21282,1490728691383208990,,-0.0363159179688,0.0115356445312,-0.433654785156,0.900268554688,0.0,0.0,0.0,0.0,0.0,0.0,0.0,0.0,0.0,-1.93925555556e-05,5.81776666667e-05,1.93925555556e-05,0.0,0.0,0.0,0.0,0.0,0.0,0.0,0.0,0.0,-0.07,-0.07,0.16,0.0,0.0,0.0,0.0,0.0,0.0,0.0,0.0,0.0
1490728691423691034,21283,1490728691423691034,,-0.0363159179688,0.0115356445312,-0.433654785156,0.900268554688,0.0,0.0,0.0,0.0,0.0,0.0,0.0,0.0,0.0,0.00248224711111,-5.81776666667e-05,1.93925555556e-05,0.0,0.0,0.0,0.0,0.0,0.0,0.0,0.0,0.0,1.28,-0.03,0.18,0.0,0.0,0.0,0.0,0.0,0.0,0.0,0.0,0.0
1490728691485667943,21284,1490728691485667943,,-0.0363159179688,0.0115356445312,-0.433654785156,0.900268554688,0.0,0.0,0.0,0.0,0.0,0.0,0.0,0.0,0.0,0.0,5.81776666667e-05,-1.93925555556e-05,0.0,0.0,0.0,0.0,0.0,0.0,0.0,0.0,0.0,-0.06,-0.05,0.21,0.0,0.0,0.0,0.0,0.0,0.0,0.0,0.0,0.0
1490728691524290084,21285,1490728691524290084,,-0.0363159179688,0.0115356445312,-0.433654785156,0.900268554688,0.0,0.0,0.0,0.0,0.0,0.0,0.0,0.0,0.0,-3.87851111111e-05,-5.81776666667e-05,0.0,0.0,0.0,0.0,0.0,0.0,0.0,0.0,0.0,0.0,-0.03,-0.02,0.15,0.0,0.0,0.0,0.0,0.0,0.0,0.0,0.0,0.0
1490728691559549093,21286,1490728691559549093,,-0.0363159179688,0.0115356445312,-0.433654785156,0.900268554688,0.0,0.0,0.0,0.0,0.0,0.0,0.0,0.0,0.0,-3.87851111111e-05,0.0,0.0,0.0,0.0,0.0,0.0,0.0,0.0,0.0,0.0,0.0,-0.01,-0.08,0.19,0.0,0.0,0.0,0.0,0.0,0.0,0.0,0.0,0.0
1490728691594160079,21287,1490728691594160079,,-0.0363159179688,0.0115356445312,-0.433654785156,0.900268554688,0.0,0.0,0.0,0.0,0.0,0.0,0.0,0.0,0.0,0.00248224711111,-1.93925555556e-05,-1.93925555556e-05,0.0,0.0,0.0,0.0,0.0,0.0,0.0,0.0,0.0,-0.04,-0.08,0.16,0.0,0.0,0.0,0.0,0.0,0.0,0.0,0.0,0.0
1490728691621217012,21288,1490728691621217012,,-0.0363159179688,0.0115356445312,-0.433654785156,0.900268554688,0.0,0.0,0.0,0.0,0.0,0.0,0.0,0.0,0.0,0.00250163966667,3.87851111111e-05,0.0,0.0,0.0,0.0,0.0,0.0,0.0,0.0,0.0,0.0,-0.04,0.02,0.14,0.0,0.0,0.0,0.0,0.0,0.0,0.0,0.0,0.0
1490728691651134014,21289,1490728691651134014,,-0.0363159179688,0.0115356445312,-0.433654785156,0.900268554688,0.0,0.0,0.0,0.0,0.0,0.0,0.0,0.0,0.0,-7.75702222222e-05,-1.93925555556e-05,-1.93925555556e-05,0.0,0.0,0.0,0.0,0.0,0.0,0.0,0.0,0.0,-0.01,-0.02,0.24,0.0,0.0,0.0,0.0,0.0,0.0,0.0,0.0,0.0
1490728691672909975,21290,1490728691672909975,,-0.0363159179688,0.0115356445312,-0.433654785156,0.900268554688,0.0,0.0,0.0,0.0,0.0,0.0,0.0,0.0,0.0,-9.69627777778e-05,1.93925555556e-05,0.0,0.0,0.0,0.0,0.0,0.0,0.0,0.0,0.0,0.0,-0.05,-0.1,0.15,0.0,0.0,0.0,0.0,0.0,0.0,0.0,0.0,0.0
1490728691697693109,21291,1490728691697693109,,-0.0363159179688,0.0115356445312,-0.433654785156,0.900268554688,0.0,0.0,0.0,0.0,0.0,0.0,0.0,0.0,0.0,-3.87851111111e-05,-5.81776666667e-05,-1.93925555556e-05,0.0,0.0,0.0,0.0,0.0,0.0,0.0,0.0,0.0,-0.03,-0.08,0.24,0.0,0.0,0.0,0.0,0.0,0.0,0.0,0.0,0.0
1490728691726989984,21292,1490728691726989984,,-6.103515625e-05,-6.103515625e-05,-6.103515625e-05,-0.00299072265625,0.0,0.0,0.0,0.0,0.0,0.0,0.0,0.0,0.0,0.00257920988889,3.87851111111e-05,-1.93925555556e-05,0.0,0.0,0.0,0.0,0.0,0.0,0.0,0.0,0.0,-0.04,0.03,0.14,0.0,0.0,0.0,0.0,0.0,0.0,0.0,0.0,0.0
1490728691753988981,21293,1490728691753988981,,-0.0363159179688,0.0115356445312,-0.433654785156,0.900268554688,0.0,0.0,0.0,0.0,0.0,0.0,0.0,0.0,0.0,0.00248224711111,7.75702222222e-05,-3.87851111111e-05,0.0,0.0,0.0,0.0,0.0,0.0,0.0,0.0,0.0,-0.07,-0.03,0.18,0.0,0.0,0.0,0.0,0.0,0.0,0.0,0.0,0.0
1490728691786183118,21294,1490728691786183118,,-0.0364379882812,0.0115966796875,-0.433654785156,0.900268554688,0.0,0.0,0.0,0.0,0.0,0.0,0.0,0.0,0.0,-0.000174533,-1.93925555556e-05,-1.93925555556e-05,0.0,0.0,0.0,0.0,0.0,0.0,0.0,0.0,0.0,-0.05,-0.14,0.14,0.0,0.0,0.0,0.0,0.0,0.0,0.0,0.0,0.0
1490728691819848060,21295,1490728691819848060,,-0.0364379882812,0.0115966796875,-0.433654785156,0.900268554688,0.0,0.0,0.0,0.0,0.0,0.0,0.0,0.0,0.0,0.002617995,5.81776666667e-05,0.0,0.0,0.0,0.0,0.0,0.0,0.0,0.0,0.0,0.0,-0.02,-0.07,0.05,0.0,0.0,0.0,0.0,0.0,0.0,0.0,0.0,0.0
1490728691847570896,21296,1490728691847570896,,-0.036376953125,0.0115966796875,-0.433654785156,0.900268554688,0.0,0.0,0.0,0.0,0.0,0.0,0.0,0.0,0.0,0.00257920988889,7.75702222222e-05,-1.93925555556e-05,0.0,0.0,0.0,0.0,0.0,0.0,0.0,0.0,0.0,-0.07,0.12,0.32,0.0,0.0,0.0,0.0,0.0,0.0,0.0,0.0,0.0
1490728691873516082,21297,1490728691873516082,,-0.036376953125,0.0115966796875,-0.433654785156,0.900268554688,0.0,0.0,0.0,0.0,0.0,0.0,0.0,0.0,0.0,-0.000116355333333,-7.75702222222e-05,1.93925555556e-05,0.0,0.0,0.0,0.0,0.0,0.0,0.0,0.0,0.0,-0.07,0.07,0.19,0.0,0.0,0.0,0.0,0.0,0.0,0.0,0.0,0.0
1490728691905869007,21298,1490728691905869007,,-0.0364379882812,0.0115966796875,-0.433654785156,0.900268554688,0.0,0.0,0.0,0.0,0.0,0.0,0.0,0.0,0.0,-7.75702222222e-05,-1.93925555556e-05,1.93925555556e-05,0.0,0.0,0.0,0.0,0.0,0.0,0.0,0.0,0.0,-0.02,-0.15,0.09,0.0,0.0,0.0,0.0,0.0,0.0,0.0,0.0,0.0
1490728691936269998,21299,1490728691936269998,,-0.0364379882812,0.0115966796875,-0.433654785156,0.900268554688,0.0,0.0,0.0,0.0,0.0,0.0,0.0,0.0,0.0,0.00259860244444,5.81776666667e-05,-1.93925555556e-05,0.0,0.0,0.0,0.0,0.0,0.0,0.0,0.0,0.0,-0.09,0.01,0.28,0.0,0.0,0.0,0.0,0.0,0.0,0.0,0.0,0.0
1490728691975594997,21300,1490728691975594997,,-0.0364379882812,0.0115966796875,-0.433654785156,0.900268554688,0.0,0.0,0.0,0.0,0.0,0.0,0.0,0.0,0.0,-3.87851111111e-05,1.93925555556e-05,0.0,0.0,0.0,0.0,0.0,0.0,0.0,0.0,0.0,0.0,-0.04,0.0,0.19,0.0,0.0,0.0,0.0,0.0,0.0,0.0,0.0,0.0
1490728692025662899,21301,1490728692025662899,,-0.0364379882812,0.0115966796875,-0.433654785156,0.900268554688,0.0,0.0,0.0,0.0,0.0,0.0,0.0,0.0,0.0,-5.81776666667e-05,-1.93925555556e-05,-3.87851111111e-05,0.0,0.0,0.0,0.0,0.0,0.0,0.0,0.0,0.0,1.29,-0.01,0.28,0.0,0.0,0.0,0.0,0.0,0.0,0.0,0.0,0.0
1490728692057970046,21302,1490728692057970046,,-0.0364379882812,0.0115966796875,-0.433654785156,0.900268554688,0.0,0.0,0.0,0.0,0.0,0.0,0.0,0.0,0.0,0.002617995,1.93925555556e-05,1.93925555556e-05,0.0,0.0,0.0,0.0,0.0,0.0,0.0,0.0,0.0,-0.05,0.05,0.11,0.0,0.0,0.0,0.0,0.0,0.0,0.0,0.0,0.0
1490728692093265056,21303,1490728692093265056,,-0.0364379882812,0.0115966796875,-0.433654785156,0.900268554688,0.0,0.0,0.0,0.0,0.0,0.0,0.0,0.0,0.0,-0.000174533,9.69627777778e-05,1.93925555556e-05,0.0,0.0,0.0,0.0,0.0,0.0,0.0,0.0,0.0,-0.07,-0.06,0.24,0.0,0.0,0.0,0.0,0.0,0.0,0.0,0.0,0.0
1490728692132179975,21304,1490728692132179975,,-0.03662109375,0.01171875,1.56634521484,0.900268554688,0.0,0.0,0.0,0.0,0.0,0.0,0.0,0.0,0.0,0.00254042477778,-0.000135747888889,1.93925555556e-05,0.0,0.0,0.0,0.0,0.0,0.0,0.0,0.0,0.0,1.28,0.06,0.12,0.0,0.0,0.0,0.0,0.0,0.0,0.0,0.0,0.0
1490728692175657987,21305,1490728692175657987,,-0.036376953125,0.0115966796875,-0.433654785156,0.900268554688,0.0,0.0,0.0,0.0,0.0,0.0,0.0,0.0,0.0,-3.87851111111e-05,0.000135747888889,-1.93925555556e-05,0.0,0.0,0.0,0.0,0.0,0.0,0.0,0.0,0.0,-0.09,0.07,0.12,0.0,0.0,0.0,0.0,0.0,0.0,0.0,0.0,0.0
1490728692227720022,21306,1490728692227720022,,-0.0366821289062,0.01171875,-0.433654785156,0.900268554688,0.0,0.0,0.0,0.0,0.0,0.0,0.0,0.0,0.0,-0.000135747888889,-0.000135747888889,1.93925555556e-05,0.0,0.0,0.0,0.0,0.0,0.0,0.0,0.0,0.0,-0.01,-0.27,0.06,0.0,0.0,0.0,0.0,0.0,0.0,0.0,0.0,0.0
1490728692260258913,21307,1490728692260258913,,-0.03662109375,0.01171875,-0.433654785156,0.900268554688,0.0,0.0,0.0,0.0,0.0,0.0,0.0,0.0,0.0,0.00273435033333,5.81776666667e-05,1.93925555556e-05,0.0,0.0,0.0,0.0,0.0,0.0,0.0,0.0,0.0,1.29,0.0,0.29,0.0,0.0,0.0,0.0,0.0,0.0,0.0,0.0,0.0
1490728692305269002,21308,1490728692305269002,,-0.0365600585938,0.0116577148438,-0.433654785156,0.900268554688,0.0,0.0,0.0,0.0,0.0,0.0,0.0,0.0,0.0,-7.75702222222e-05,1.93925555556e-05,1.93925555556e-05,0.0,0.0,0.0,0.0,0.0,0.0,0.0,0.0,0.0,-0.1,0.0,0.35,0.0,0.0,0.0,0.0,0.0,0.0,0.0,0.0,0.0
1490728692353614091,21309,1490728692353614091,,-0.0365600585938,0.0116577148438,-0.433654785156,0.900268554688,0.0,0.0,0.0,0.0,0.0,0.0,0.0,0.0,0.0,-7.75702222222e-05,-0.000116355333333,1.93925555556e-05,0.0,0.0,0.0,0.0,0.0,0.0,0.0,0.0,0.0,0.01,-0.14,0.23,0.0,0.0,0.0,0.0,0.0,0.0,0.0,0.0,0.0
1490728692380721092,21310,1490728692380721092,,-0.0365600585938,0.0116577148438,-0.433654785156,0.900268554688,0.0,0.0,0.0,0.0,0.0,0.0,0.0,0.0,0.0,0.00257920988889,7.75702222222e-05,-1.93925555556e-05,0.0,0.0,0.0,0.0,0.0,0.0,0.0,0.0,0.0,-0.02,-0.05,0.08,0.0,0.0,0.0,0.0,0.0,0.0,0.0,0.0,0.0
1490728692413939952,21311,1490728692413939952,,-0.0365600585938,0.0116577148438,-0.433654785156,0.900268554688,0.0,0.0,0.0,0.0,0.0,0.0,0.0,0.0,0.0,0.00254042477778,1.93925555556e-05,-1.93925555556e-05,0.0,0.0,0.0,0.0,0.0,0.0,0.0,0.0,0.0,-0.1,0.01,0.12,0.0,0.0,0.0,0.0,0.0,0.0,0.0,0.0,0.0
1490728692448863029,21312,1490728692448863029,,-0.0365600585938,0.0116577148438,-0.433654785156,0.900268554688,0.0,0.0,0.0,0.0,0.0,0.0,0.0,0.0,0.0,-5.81776666667e-05,-0.000155140444444,-3.87851111111e-05,0.0,0.0,0.0,0.0,0.0,0.0,0.0,0.0,0.0,-0.01,-0.06,0.26,0.0,0.0,0.0,0.0,0.0,0.0,0.0,0.0,0.0
1490728692491199970,21313,1490728692491199970,,-0.0365600585938,0.0116577148438,-0.433654785156,0.900268554688,0.0,0.0,0.0,0.0,0.0,0.0,0.0,0.0,0.0,-1.93925555556e-05,1.93925555556e-05,-3.87851111111e-05,0.0,0.0,0.0,0.0,0.0,0.0,0.0,0.0,0.0,-0.03,-0.13,0.22,0.0,0.0,0.0,0.0,0.0,0.0,0.0,0.0,0.0
1490728692529864072,21314,1490728692529864072,,-0.0365600585938,0.0116577148438,-0.433654785156,0.900268554688,0.0,0.0,0.0,0.0,0.0,0.0,0.0,0.0,0.0,0.00254042477778,-1.93925555556e-05,-1.93925555556e-05,0.0,0.0,0.0,0.0,0.0,0.0,0.0,0.0,0.0,-0.03,0.02,0.14,0.0,0.0,0.0,0.0,0.0,0.0,0.0,0.0,0.0
1490728692560856103,21315,1490728692560856103,,-0.0365600585938,0.0116577148438,-0.433654785156,0.900268554688,0.0,0.0,0.0,0.0,0.0,0.0,0.0,0.0,0.0,-9.69627777778e-05,-1.93925555556e-05,1.93925555556e-05,0.0,0.0,0.0,0.0,0.0,0.0,0.0,0.0,0.0,-0.04,-0.01,0.08,0.0,0.0,0.0,0.0,0.0,0.0,0.0,0.0,0.0
1490728692597505092,21316,1490728692597505092,,-0.0365600585938,0.0116577148438,-0.433654785156,0.900268554688,0.0,0.0,0.0,0.0,0.0,0.0,0.0,0.0,0.0,-9.69627777778e-05,-1.93925555556e-05,0.0,0.0,0.0,0.0,0.0,0.0,0.0,0.0,0.0,0.0,-0.06,-0.1,0.2,0.0,0.0,0.0,0.0,0.0,0.0,0.0,0.0,0.0
1490728692635158061,21317,1490728692635158061,,-0.0365600585938,0.0116577148438,-0.433654785156,0.900268554688,0.0,0.0,0.0,0.0,0.0,0.0,0.0,0.0,0.0,0.00252103222222,-3.87851111111e-05,0.0,0.0,0.0,0.0,0.0,0.0,0.0,0.0,0.0,0.0,-0.02,-0.03,0.23,0.0,0.0,0.0,0.0,0.0,0.0,0.0,0.0,0.0
1490728692671716928,21318,1490728692671716928,,-0.0365600585938,0.0116577148438,-0.433654785156,0.900268554688,0.0,0.0,0.0,0.0,0.0,0.0,0.0,0.0,0.0,-3.87851111111e-05,0.0,-1.93925555556e-05,0.0,0.0,0.0,0.0,0.0,0.0,0.0,0.0,0.0,-0.04,-0.04,0.2,0.0,0.0,0.0,0.0,0.0,0.0,0.0,0.0,0.0
1490728692708312988,21319,1490728692708312988,,-0.0365600585938,0.0116577148438,-0.433654785156,0.900268554688,0.0,0.0,0.0,0.0,0.0,0.0,0.0,0.0,0.0,3.87851111111e-05,7.75702222222e-05,3.87851111111e-05,0.0,0.0,0.0,0.0,0.0,0.0,0.0,0.0,0.0,-0.1,-0.03,0.12,0.0,0.0,0.0,0.0,0.0,0.0,0.0,0.0,0.0
1490728692759134054,21320,1490728692759134054,,-0.0365600585938,0.0116577148438,-0.433654785156,0.900268554688,0.0,0.0,0.0,0.0,0.0,0.0,0.0,0.0,0.0,-1.93925555556e-05,-1.93925555556e-05,3.87851111111e-05,0.0,0.0,0.0,0.0,0.0,0.0,0.0,0.0,0.0,1.28,-0.08,0.15,0.0,0.0,0.0,0.0,0.0,0.0,0.0,0.0,0.0
1490728692819184064,21321,1490728692819184064,,-0.0365600585938,0.0116577148438,-0.433654785156,0.900268554688,0.0,0.0,0.0,0.0,0.0,0.0,0.0,0.0,0.0,0.00254042477778,9.69627777778e-05,1.93925555556e-05,0.0,0.0,0.0,0.0,0.0,0.0,0.0,0.0,0.0,-0.09,0.01,0.18,0.0,0.0,0.0,0.0,0.0,0.0,0.0,0.0,0.0
1490728692847444057,21322,1490728692847444057,,-0.0365600585938,0.0116577148438,-0.433654785156,0.900268554688,0.0,0.0,0.0,0.0,0.0,0.0,0.0,0.0,0.0,-3.87851111111e-05,-1.93925555556e-05,0.0,0.0,0.0,0.0,0.0,0.0,0.0,0.0,0.0,0.0,-0.04,0.0,0.16,0.0,0.0,0.0,0.0,0.0,0.0,0.0,0.0,0.0
1490728692873725891,21323,1490728692873725891,,-0.0365600585938,0.0116577148438,-0.433654785156,0.900268554688,0.0,0.0,0.0,0.0,0.0,0.0,0.0,0.0,0.0,-0.000135747888889,-3.87851111111e-05,1.93925555556e-05,0.0,0.0,0.0,0.0,0.0,0.0,0.0,0.0,0.0,1.29,-0.09,0.15,0.0,0.0,0.0,0.0,0.0,0.0,0.0,0.0,0.0
1490728692903652906,21324,1490728692903652906,,-0.0365600585938,0.0116577148438,-0.433654785156,0.900268554688,0.0,0.0,0.0,0.0,0.0,0.0,0.0,0.0,0.0,0.00252103222222,3.87851111111e-05,1.93925555556e-05,0.0,0.0,0.0,0.0,0.0,0.0,0.0,0.0,0.0,-0.02,-0.07,0.19,0.0,0.0,0.0,0.0,0.0,0.0,0.0,0.0,0.0
1490728692960405111,21325,1490728692960405111,,-0.0365600585938,0.0116577148438,-0.433654785156,0.900268554688,0.0,0.0,0.0,0.0,0.0,0.0,0.0,0.0,0.0,-9.69627777778e-05,-3.87851111111e-05,-1.93925555556e-05,0.0,0.0,0.0,0.0,0.0,0.0,0.0,0.0,0.0,-0.04,0.0,0.25,0.0,0.0,0.0,0.0,0.0,0.0,0.0,0.0,0.0
1490728692993022918,21326,1490728692993022918,,-0.0365600585938,0.0116577148438,-0.433654785156,0.900268554688,0.0,0.0,0.0,0.0,0.0,0.0,0.0,0.0,0.0,-9.69627777778e-05,-5.81776666667e-05,0.0,0.0,0.0,0.0,0.0,0.0,0.0,0.0,0.0,0.0,1.28,-0.13,0.17,0.0,0.0,0.0,0.0,0.0,0.0,0.0,0.0,0.0
1490728693015008926,21327,1490728693015008926,,-0.0365600585938,0.0116577148438,-0.433654785156,0.900268554688,0.0,0.0,0.0,0.0,0.0,0.0,0.0,0.0,0.0,0.00248224711111,3.87851111111e-05,0.0,0.0,0.0,0.0,0.0,0.0,0.0,0.0,0.0,0.0,-0.02,-0.08,0.14,0.0,0.0,0.0,0.0,0.0,0.0,0.0,0.0,0.0
1490728693043967962,21328,1490728693043967962,,-0.0365600585938,0.0116577148438,-0.433654785156,0.900268554688,0.0,0.0,0.0,0.0,0.0,0.0,0.0,0.0,0.0,0.00250163966667,1.93925555556e-05,1.93925555556e-05,0.0,0.0,0.0,0.0,0.0,0.0,0.0,0.0,0.0,-0.07,0.01,0.15,0.0,0.0,0.0,0.0,0.0,0.0,0.0,0.0,0.0
1490728693091784954,21329,1490728693091784954,,-0.0365600585938,0.0116577148438,-0.433654785156,0.900268554688,0.0,0.0,0.0,0.0,0.0,0.0,0.0,0.0,0.0,-0.000135747888889,-0.000116355333333,-1.93925555556e-05,0.0,0.0,0.0,0.0,0.0,0.0,0.0,0.0,0.0,1.29,-0.09,0.22,0.0,0.0,0.0,0.0,0.0,0.0,0.0,0.0,0.0
1490728693133404016,21330,1490728693133404016,,-0.0365600585938,0.0116577148438,-0.433654785156,0.900268554688,0.0,0.0,0.0,0.0,0.0,0.0,0.0,0.0,0.0,0.00248224711111,3.87851111111e-05,-1.93925555556e-05,0.0,0.0,0.0,0.0,0.0,0.0,0.0,0.0,0.0,-0.01,-0.06,0.13,0.0,0.0,0.0,0.0,0.0,0.0,0.0,0.0,0.0
1490728693161349058,21331,1490728693161349058,,-0.0365600585938,0.0116577148438,-0.433654785156,0.900268554688,0.0,0.0,0.0,0.0,0.0,0.0,0.0,0.0,0.0,0.00257920988889,7.75702222222e-05,-1.93925555556e-05,0.0,0.0,0.0,0.0,0.0,0.0,0.0,0.0,0.0,-0.08,0.0,0.18,0.0,0.0,0.0,0.0,0.0,0.0,0.0,0.0,0.0
1490728693193473100,21332,1490728693193473100,,-0.0365600585938,0.0116577148438,-0.433654785156,0.900268554688,0.0,0.0,0.0,0.0,0.0,0.0,0.0,0.0,0.0,-7.75702222222e-05,-7.75702222222e-05,0.0,0.0,0.0,0.0,0.0,0.0,0.0,0.0,0.0,0.0,-0.03,0.0,0.21,0.0,0.0,0.0,0.0,0.0,0.0,0.0,0.0,0.0
1490728693245506048,21333,1490728693245506048,,-0.0365600585938,0.0116577148438,-0.433654785156,0.900268554688,0.0,0.0,0.0,0.0,0.0,0.0,0.0,0.0,0.0,0.00250163966667,-1.93925555556e-05,0.0,0.0,0.0,0.0,0.0,0.0,0.0,0.0,0.0,0.0,-0.05,-0.06,0.23,0.0,0.0,0.0,0.0,0.0,0.0,0.0,0.0,0.0
1490728693271925926,21334,1490728693271925926,,-0.0365600585938,0.0116577148438,-0.433654785156,0.900268554688,0.0,0.0,0.0,0.0,0.0,0.0,0.0,0.0,0.0,0.00252103222222,-5.81776666667e-05,1.93925555556e-05,0.0,0.0,0.0,0.0,0.0,0.0,0.0,0.0,0.0,-0.04,0.0,0.13,0.0,0.0,0.0,0.0,0.0,0.0,0.0,0.0,0.0
1490728693300831079,21335,1490728693300831079,,-0.0365600585938,0.0116577148438,-0.433654785156,0.900268554688,0.0,0.0,0.0,0.0,0.0,0.0,0.0,0.0,0.0,0.00248224711111,-1.93925555556e-05,-1.93925555556e-05,0.0,0.0,0.0,0.0,0.0,0.0,0.0,0.0,0.0,1.28,-0.01,0.23,0.0,0.0,0.0,0.0,0.0,0.0,0.0,0.0,0.0
1490728693328299999,21336,1490728693328299999,,-0.0365600585938,0.0116577148438,-0.433654785156,0.900268554688,0.0,0.0,0.0,0.0,0.0,0.0,0.0,0.0,0.0,-3.87851111111e-05,0.0,-1.93925555556e-05,0.0,0.0,0.0,0.0,0.0,0.0,0.0,0.0,0.0,-0.07,-0.06,0.19,0.0,0.0,0.0,0.0,0.0,0.0,0.0,0.0,0.0
1490728693361078977,21337,1490728693361078977,,-0.0365600585938,0.0116577148438,-0.433654785156,0.900268554688,0.0,0.0,0.0,0.0,0.0,0.0,0.0,0.0,0.0,-1.93925555556e-05,1.93925555556e-05,0.0,0.0,0.0,0.0,0.0,0.0,0.0,0.0,0.0,0.0,-0.07,-0.07,0.18,0.0,0.0,0.0,0.0,0.0,0.0,0.0,0.0,0.0
1490728693386745929,21338,1490728693386745929,,-0.0365600585938,0.0116577148438,1.56634521484,0.900268554688,0.0,0.0,0.0,0.0,0.0,0.0,0.0,0.0,0.0,0.00250163966667,-5.81776666667e-05,5.81776666667e-05,0.0,0.0,0.0,0.0,0.0,0.0,0.0,0.0,0.0,-0.01,-0.02,0.22,0.0,0.0,0.0,0.0,0.0,0.0,0.0,0.0,0.0
1490728693429064989,21339,1490728693429064989,,-0.0365600585938,0.0116577148438,-0.433654785156,0.900268554688,0.0,0.0,0.0,0.0,0.0,0.0,0.0,0.0,0.0,-1.93925555556e-05,5.81776666667e-05,0.0,0.0,0.0,0.0,0.0,0.0,0.0,0.0,0.0,0.0,-0.05,-0.02,0.21,0.0,0.0,0.0,0.0,0.0,0.0,0.0,0.0,0.0
1490728693455421924,21340,1490728693455421924,,-0.0365600585938,0.0116577148438,-0.433654785156,0.900268554688,0.0,0.0,0.0,0.0,0.0,0.0,0.0,0.0,0.0,-7.75702222222e-05,1.93925555556e-05,-1.93925555556e-05,0.0,0.0,0.0,0.0,0.0,0.0,0.0,0.0,0.0,-0.08,-0.05,0.18,0.0,0.0,0.0,0.0,0.0,0.0,0.0,0.0,0.0
1490728693479516983,21341,1490728693479516983,,-0.0365600585938,0.0116577148438,-0.433654785156,0.900268554688,0.0,0.0,0.0,0.0,0.0,0.0,0.0,0.0,0.0,0.00248224711111,-5.81776666667e-05,1.93925555556e-05,0.0,0.0,0.0,0.0,0.0,0.0,0.0,0.0,0.0,-0.03,-0.05,0.18,0.0,0.0,0.0,0.0,0.0,0.0,0.0,0.0,0.0
1490728693502933979,21342,1490728693502933979,,-0.0365600585938,0.0116577148438,-0.433654785156,0.900268554688,0.0,0.0,0.0,0.0,0.0,0.0,0.0,0.0,0.0,0.00252103222222,-3.87851111111e-05,-3.87851111111e-05,0.0,0.0,0.0,0.0,0.0,0.0,0.0,0.0,0.0,1.28,-0.02,0.21,0.0,0.0,0.0,0.0,0.0,0.0,0.0,0.0,0.0
1490728693535093069,21343,1490728693535093069,,-0.0365600585938,0.0116577148438,-0.433654785156,0.900268554688,0.0,0.0,0.0,0.0,0.0,0.0,0.0,0.0,0.0,0.00250163966667,0.0,0.0,0.0,0.0,0.0,0.0,0.0,0.0,0.0,0.0,0.0,-0.05,-0.04,0.23,0.0,0.0,0.0,0.0,0.0,0.0,0.0,0.0,0.0
1490728693568969964,21344,1490728693568969964,,-0.0365600585938,0.0116577148438,-0.433654785156,0.900268554688,0.0,0.0,0.0,0.0,0.0,0.0,0.0,0.0,0.0,-1.93925555556e-05,0.0,-1.93925555556e-05,0.0,0.0,0.0,0.0,0.0,0.0,0.0,0.0,0.0,-0.04,-0.06,0.19,0.0,0.0,0.0,0.0,0.0,0.0,0.0,0.0,0.0
1490728693613106966,21345,1490728693613106966,,-0.0365600585938,0.0116577148438,-0.433654785156,0.900268554688,0.0,0.0,0.0,0.0,0.0,0.0,0.0,0.0,0.0,0.00252103222222,-3.87851111111e-05,-1.93925555556e-05,0.0,0.0,0.0,0.0,0.0,0.0,0.0,0.0,0.0,-0.02,-0.02,0.13,0.0,0.0,0.0,0.0,0.0,0.0,0.0,0.0,0.0
1490728693668148040,21346,1490728693668148040,,-0.0365600585938,0.0116577148438,-0.433654785156,0.900268554688,0.0,0.0,0.0,0.0,0.0,0.0,0.0,0.0,0.0,-1.93925555556e-05,0.0,-1.93925555556e-05,0.0,0.0,0.0,0.0,0.0,0.0,0.0,0.0,0.0,-0.07,-0.01,0.2,0.0,0.0,0.0,0.0,0.0,0.0,0.0,0.0,0.0
1490728693703465938,21347,1490728693703465938,,-0.0365600585938,0.0116577148438,-0.433654785156,0.900268554688,0.0,0.0,0.0,0.0,0.0,0.0,0.0,0.0,0.0,-7.75702222222e-05,-7.75702222222e-05,3.87851111111e-05,0.0,0.0,0.0,0.0,0.0,0.0,0.0,0.0,0.0,1.28,-0.04,0.19,0.0,0.0,0.0,0.0,0.0,0.0,0.0,0.0,0.0
1490728693738440990,21348,1490728693738440990,,-0.0365600585938,0.0116577148438,-0.433654785156,0.900268554688,0.0,0.0,0.0,0.0,0.0,0.0,0.0,0.0,0.0,0.00252103222222,0.0,-1.93925555556e-05,0.0,0.0,0.0,0.0,0.0,0.0,0.0,0.0,0.0,-0.06,-0.05,0.2,0.0,0.0,0.0,0.0,0.0,0.0,0.0,0.0,0.0
1490728693774473905,21349,1490728693774473905,,-0.0365600585938,0.0116577148438,-0.433654785156,0.900268554688,0.0,0.0,0.0,0.0,0.0,0.0,0.0,0.0,0.0,0.00254042477778,0.0,0.0,0.0,0.0,0.0,0.0,0.0,0.0,0.0,0.0,0.0,-0.06,0.0,0.21,0.0,0.0,0.0,0.0,0.0,0.0,0.0,0.0,0.0
1490728693816834926,21350,1490728693816834926,,-0.0365600585938,0.0116577148438,-0.433654785156,0.900268554688,0.0,0.0,0.0,0.0,0.0,0.0,0.0,0.0,0.0,-9.69627777778e-05,-5.81776666667e-05,1.93925555556e-05,0.0,0.0,0.0,0.0,0.0,0.0,0.0,0.0,0.0,-0.01,-0.09,0.15,0.0,0.0,0.0,0.0,0.0,0.0,0.0,0.0,0.0
1490728693857268095,21351,1490728693857268095,,-0.0365600585938,0.0116577148438,-0.433654785156,0.900268554688,0.0,0.0,0.0,0.0,0.0,0.0,0.0,0.0,0.0,0.00254042477778,3.87851111111e-05,3.87851111111e-05,0.0,0.0,0.0,0.0,0.0,0.0,0.0,0.0,0.0,-0.08,-0.04,0.23,0.0,0.0,0.0,0.0,0.0,0.0,0.0,0.0,0.0
1490728693887094020,21352,1490728693887094020,,-0.0365600585938,0.0116577148438,-0.433654785156,0.900268554688,0.0,0.0,0.0,0.0,0.0,0.0,0.0,0.0,0.0,7.75702222222e-05,0.0,-1.93925555556e-05,0.0,0.0,0.0,0.0,0.0,0.0,0.0,0.0,0.0,-0.04,0.0,0.24,0.0,0.0,0.0,0.0,0.0,0.0,0.0,0.0,0.0
1490728693913584947,21353,1490728693913584947,,-0.0365600585938,0.0116577148438,-0.433654785156,0.900268554688,0.0,0.0,0.0,0.0,0.0,0.0,0.0,0.0,0.0,-7.75702222222e-05,-0.000116355333333,1.93925555556e-05,0.0,0.0,0.0,0.0,0.0,0.0,0.0,0.0,0.0,1.28,-0.02,0.23,0.0,0.0,0.0,0.0,0.0,0.0,0.0,0.0,0.0
1490728693936383008,21354,1490728693936383008,,-0.0365600585938,0.0116577148438,-0.433654785156,0.900268554688,0.0,0.0,0.0,0.0,0.0,0.0,0.0,0.0,0.0,0.00250163966667,-3.87851111111e-05,5.81776666667e-05,0.0,0.0,0.0,0.0,0.0,0.0,0.0,0.0,0.0,-0.01,-0.09,0.15,0.0,0.0,0.0,0.0,0.0,0.0,0.0,0.0,0.0
1490728693969492912,21355,1490728693969492912,,-0.0365600585938,0.0116577148438,-0.433654785156,0.900268554688,0.0,0.0,0.0,0.0,0.0,0.0,0.0,0.0,0.0,0.00263738755556,5.81776666667e-05,-3.87851111111e-05,0.0,0.0,0.0,0.0,0.0,0.0,0.0,0.0,0.0,-0.08,0.0,0.16,0.0,0.0,0.0,0.0,0.0,0.0,0.0,0.0,0.0
1490728693996355056,21356,1490728693996355056,,-0.0365600585938,0.0116577148438,-0.433654785156,0.900268554688,0.0,0.0,0.0,0.0,0.0,0.0,0.0,0.0,0.0,0.00250163966667,-1.93925555556e-05,3.87851111111e-05,0.0,0.0,0.0,0.0,0.0,0.0,0.0,0.0,0.0,-0.07,0.02,0.22,0.0,0.0,0.0,0.0,0.0,0.0,0.0,0.0,0.0
1490728694020016908,21357,1490728694020016908,,-0.0365600585938,0.0116577148438,-0.433654785156,0.900268554688,0.0,0.0,0.0,0.0,0.0,0.0,0.0,0.0,0.0,-0.000116355333333,-0.000116355333333,3.87851111111e-05,0.0,0.0,0.0,0.0,0.0,0.0,0.0,0.0,0.0,1.31,-0.05,0.11,0.0,0.0,0.0,0.0,0.0,0.0,0.0,0.0,0.0
1490728694058334112,21358,1490728694058334112,,-0.0365600585938,0.0116577148438,-0.433654785156,0.900268554688,0.0,0.0,0.0,0.0,0.0,0.0,0.0,0.0,0.0,0.002617995,9.69627777778e-05,-1.93925555556e-05,0.0,0.0,0.0,0.0,0.0,0.0,0.0,0.0,0.0,-0.04,-0.04,0.24,0.0,0.0,0.0,0.0,0.0,0.0,0.0,0.0,0.0
1490728694081263065,21359,1490728694081263065,,-0.0365600585938,0.0116577148438,-0.433654785156,0.900268554688,0.0,0.0,0.0,0.0,0.0,0.0,0.0,0.0,0.0,0.00252103222222,7.75702222222e-05,-5.81776666667e-05,0.0,0.0,0.0,0.0,0.0,0.0,0.0,0.0,0.0,-0.1,0.0,0.22,0.0,0.0,0.0,0.0,0.0,0.0,0.0,0.0,0.0
1490728694104792118,21360,1490728694104792118,,-0.0365600585938,0.0116577148438,-0.433654785156,0.900268554688,0.0,0.0,0.0,0.0,0.0,0.0,0.0,0.0,0.0,-1.93925555556e-05,-3.87851111111e-05,3.87851111111e-05,0.0,0.0,0.0,0.0,0.0,0.0,0.0,0.0,0.0,-0.05,-0.03,0.21,0.0,0.0,0.0,0.0,0.0,0.0,0.0,0.0,0.0
1490728694131668090,21361,1490728694131668090,,-0.0365600585938,0.0116577148438,-0.433654785156,0.900268554688,0.0,0.0,0.0,0.0,0.0,0.0,0.0,0.0,0.0,-5.81776666667e-05,-3.87851111111e-05,-1.93925555556e-05,0.0,0.0,0.0,0.0,0.0,0.0,0.0,0.0,0.0,1.28,-0.08,0.16,0.0,0.0,0.0,0.0,0.0,0.0,0.0,0.0,0.0
1490728694160797119,21362,1490728694160797119,,-0.0365600585938,0.0116577148438,-0.433654785156,0.900268554688,0.0,0.0,0.0,0.0,0.0,0.0,0.0,0.0,0.0,0.00255981733333,7.75702222222e-05,1.93925555556e-05,0.0,0.0,0.0,0.0,0.0,0.0,0.0,0.0,0.0,-0.08,-0.03,0.2,0.0,0.0,0.0,0.0,0.0,0.0,0.0,0.0,0.0
1490728694199398994,21363,1490728694199398994,,-0.0365600585938,0.0116577148438,-0.433654785156,0.900268554688,0.0,0.0,0.0,0.0,0.0,0.0,0.0,0.0,0.0,-5.81776666667e-05,-3.87851111111e-05,-1.93925555556e-05,0.0,0.0,0.0,0.0,0.0,0.0,0.0,0.0,0.0,-0.03,-0.03,0.23,0.0,0.0,0.0,0.0,0.0,0.0,0.0,0.0,0.0
1490728694234153985,21364,1490728694234153985,,-0.0365600585938,0.0116577148438,-0.433654785156,0.900268554688,0.0,0.0,0.0,0.0,0.0,0.0,0.0,0.0,0.0,-5.81776666667e-05,-9.69627777778e-05,0.0,0.0,0.0,0.0,0.0,0.0,0.0,0.0,0.0,0.0,0.01,-0.08,0.1,0.0,0.0,0.0,0.0,0.0,0.0,0.0,0.0,0.0
1490728694280335903,21365,1490728694280335903,,-0.0365600585938,0.0116577148438,-0.433654785156,0.900268554688,0.0,0.0,0.0,0.0,0.0,0.0,0.0,0.0,0.0,-1.93925555556e-05,9.69627777778e-05,-1.93925555556e-05,0.0,0.0,0.0,0.0,0.0,0.0,0.0,0.0,0.0,-0.12,0.0,0.23,0.0,0.0,0.0,0.0,0.0,0.0,0.0,0.0,0.0
1490728694305752038,21366,1490728694305752038,,-0.0365600585938,0.0115966796875,-0.433654785156,0.900268554688,0.0,0.0,0.0,0.0,0.0,0.0,0.0,0.0,0.0,-5.81776666667e-05,-0.000193925555556,5.81776666667e-05,0.0,0.0,0.0,0.0,0.0,0.0,0.0,0.0,0.0,0.04,-0.07,0.08,0.0,0.0,0.0,0.0,0.0,0.0,0.0,0.0,0.0
1490728694363913059,21367,1490728694363913059,,-0.0365600585938,0.0116577148438,-0.433654785156,0.900268554688,0.0,0.0,0.0,0.0,0.0,0.0,0.0,0.0,0.0,0.00259860244444,0.000174533,-1.93925555556e-05,0.0,0.0,0.0,0.0,0.0,0.0,0.0,0.0,0.0,-0.12,-0.01,0.18,0.0,0.0,0.0,0.0,0.0,0.0,0.0,0.0,0.0
1490728694392321109,21368,1490728694392321109,,-0.0365600585938,0.0116577148438,-0.433654785156,0.900268554688,0.0,0.0,0.0,0.0,0.0,0.0,0.0,0.0,0.0,0.0,-0.000155140444444,3.87851111111e-05,0.0,0.0,0.0,0.0,0.0,0.0,0.0,0.0,0.0,-0.03,-0.02,0.21,0.0,0.0,0.0,0.0,0.0,0.0,0.0,0.0,0.0
1490728694427031993,21369,1490728694427031993,,1.96343994141,0.0116577148438,-0.433654785156,0.900268554688,0.0,0.0,0.0,0.0,0.0,0.0,0.0,0.0,0.0,0.00252103222222,-1.93925555556e-05,-3.87851111111e-05,0.0,0.0,0.0,0.0,0.0,0.0,0.0,0.0,0.0,1.28,-0.02,0.15,0.0,0.0,0.0,0.0,0.0,0.0,0.0,0.0,0.0
1490728694494452953,21370,1490728694494452953,,-0.0365600585938,0.0116577148438,-0.433654785156,0.900268554688,0.0,0.0,0.0,0.0,0.0,0.0,0.0,0.0,0.0,-5.81776666667e-05,-0.000116355333333,1.93925555556e-05,0.0,0.0,0.0,0.0,0.0,0.0,0.0,0.0,0.0,-0.02,-0.1,0.2,0.0,0.0,0.0,0.0,0.0,0.0,0.0,0.0,0.0
1490728694537585020,21371,1490728694537585020,,-0.0365600585938,0.0115966796875,-0.433654785156,0.900268554688,0.0,0.0,0.0,0.0,0.0,0.0,0.0,0.0,0.0,0.00255981733333,0.000174533,-1.93925555556e-05,0.0,0.0,0.0,0.0,0.0,0.0,0.0,0.0,0.0,-0.1,0.05,0.29,0.0,0.0,0.0,0.0,0.0,0.0,0.0,0.0,0.0
1490728694584585905,21372,1490728694584585905,,-0.0365600585938,0.0115966796875,-0.433654785156,0.900268554688,0.0,0.0,0.0,0.0,0.0,0.0,0.0,0.0,0.0,-0.000116355333333,-0.000174533,3.87851111111e-05,0.0,0.0,0.0,0.0,0.0,0.0,0.0,0.0,0.0,1.28,-0.15,0.17,0.0,0.0,0.0,0.0,0.0,0.0,0.0,0.0,0.0
1490728694639358997,21373,1490728694639358997,,-0.0365600585938,0.0115966796875,-0.433654785156,0.900268554688,0.0,0.0,0.0,0.0,0.0,0.0,0.0,0.0,0.0,0.00259860244444,0.000135747888889,0.0,0.0,0.0,0.0,0.0,0.0,0.0,0.0,0.0,0.0,-0.1,0.06,0.28,0.0,0.0,0.0,0.0,0.0,0.0,0.0,0.0,0.0
1490728694672555923,21374,1490728694672555923,,-0.0365600585938,0.0115966796875,1.56634521484,0.900268554688,0.0,0.0,0.0,0.0,0.0,0.0,0.0,0.0,0.0,-0.000116355333333,-0.000155140444444,3.87851111111e-05,0.0,0.0,0.0,0.0,0.0,0.0,0.0,0.0,0.0,1.3,-0.11,0.17,0.0,0.0,0.0,0.0,0.0,0.0,0.0,0.0,0.0
1490728694715069055,21375,1490728694715069055,,-0.0365600585938,0.0115966796875,-0.433654785156,0.900268554688,0.0,0.0,0.0,0.0,0.0,0.0,0.0,0.0,0.0,0.00252103222222,3.87851111111e-05,-1.93925555556e-05,0.0,0.0,0.0,0.0,0.0,0.0,0.0,0.0,0.0,0.03,-0.08,0.19,0.0,0.0,0.0,0.0,0.0,0.0,0.0,0.0,0.0
1490728694747132062,21376,1490728694747132062,,-0.0365600585938,0.0115966796875,-0.433654785156,0.900268554688,0.0,0.0,0.0,0.0,0.0,0.0,0.0,0.0,0.0,0.00250163966667,0.000135747888889,-1.93925555556e-05,0.0,0.0,0.0,0.0,0.0,0.0,0.0,0.0,0.0,-0.08,-0.04,0.24,0.0,0.0,0.0,0.0,0.0,0.0,0.0,0.0,0.0
1490728694769113063,21377,1490728694769113063,,-0.0365600585938,0.0115966796875,-0.433654785156,0.900268554688,0.0,0.0,0.0,0.0,0.0,0.0,0.0,0.0,0.0,0.00248224711111,-7.75702222222e-05,3.87851111111e-05,0.0,0.0,0.0,0.0,0.0,0.0,0.0,0.0,0.0,-0.04,0.0,0.1,0.0,0.0,0.0,0.0,0.0,0.0,0.0,0.0,0.0
1490728694803458929,21378,1490728694803458929,,-0.0365600585938,0.0115966796875,-0.433654785156,0.900268554688,0.0,0.0,0.0,0.0,0.0,0.0,0.0,0.0,0.0,-1.93925555556e-05,0.0,-3.87851111111e-05,0.0,0.0,0.0,0.0,0.0,0.0,0.0,0.0,0.0,-0.02,0.0,0.2,0.0,0.0,0.0,0.0,0.0,0.0,0.0,0.0,0.0
1490728694829566955,21379,1490728694829566955,,-0.0365600585938,0.0115966796875,-0.433654785156,0.900268554688,0.0,0.0,0.0,0.0,0.0,0.0,0.0,0.0,0.0,-7.75702222222e-05,3.87851111111e-05,0.0,0.0,0.0,0.0,0.0,0.0,0.0,0.0,0.0,0.0,-0.04,-0.09,0.19,0.0,0.0,0.0,0.0,0.0,0.0,0.0,0.0,0.0
1490728694862253904,21380,1490728694862253904,,-0.0365600585938,0.0115966796875,-0.433654785156,0.900268554688,0.0,0.0,0.0,0.0,0.0,0.0,0.0,0.0,0.0,-1.93925555556e-05,-3.87851111111e-05,1.93925555556e-05,0.0,0.0,0.0,0.0,0.0,0.0,0.0,0.0,0.0,-0.02,-0.11,0.2,0.0,0.0,0.0,0.0,0.0,0.0,0.0,0.0,0.0
1490728694888941049,21381,1490728694888941049,,-0.0365600585938,0.0115966796875,-0.433654785156,0.900268554688,0.0,0.0,0.0,0.0,0.0,0.0,0.0,0.0,0.0,0.00259860244444,5.81776666667e-05,-3.87851111111e-05,0.0,0.0,0.0,0.0,0.0,0.0,0.0,0.0,0.0,-0.02,0.03,0.22,0.0,0.0,0.0,0.0,0.0,0.0,0.0,0.0,0.0
1490728694920414924,21382,1490728694920414924,,-0.0365600585938,0.0115966796875,-0.433654785156,0.900268554688,0.0,0.0,0.0,0.0,0.0,0.0,0.0,0.0,0.0,-3.87851111111e-05,3.87851111111e-05,1.93925555556e-05,0.0,0.0,0.0,0.0,0.0,0.0,0.0,0.0,0.0,-0.06,0.04,0.15,0.0,0.0,0.0,0.0,0.0,0.0,0.0,0.0,0.0
1490728694942694902,21383,1490728694942694902,,-0.0365600585938,0.0115966796875,-0.433654785156,0.900268554688,0.0,0.0,0.0,0.0,0.0,0.0,0.0,0.0,0.0,-0.000116355333333,-1.93925555556e-05,1.93925555556e-05,0.0,0.0,0.0,0.0,0.0,0.0,0.0,0.0,0.0,-0.04,-0.05,0.19,0.0,0.0,0.0,0.0,0.0,0.0,0.0,0.0,0.0
1490728694967288970,21384,1490728694967288970,,-0.0365600585938,0.0115966796875,-0.433654785156,0.900268554688,0.0,0.0,0.0,0.0,0.0,0.0,0.0,0.0,0.0,-7.75702222222e-05,-3.87851111111e-05,0.0,0.0,0.0,0.0,0.0,0.0,0.0,0.0,0.0,0.0,1.28,-0.13,0.09,0.0,0.0,0.0,0.0,0.0,0.0,0.0,0.0,0.0
1490728694992074012,21385,1490728694992074012,,-0.0365600585938,0.0115966796875,-0.433654785156,0.900268554688,0.0,0.0,0.0,0.0,0.0,0.0,0.0,0.0,0.0,0.00255981733333,3.87851111111e-05,0.0,0.0,0.0,0.0,0.0,0.0,0.0,0.0,0.0,0.0,-0.02,-0.05,0.23,0.0,0.0,0.0,0.0,0.0,0.0,0.0,0.0,0.0
1490728695016952037,21386,1490728695016952037,,-0.0365600585938,0.0115966796875,-0.433654785156,0.900268554688,0.0,0.0,0.0,0.0,0.0,0.0,0.0,0.0,0.0,0.000116355333333,5.81776666667e-05,0.0,0.0,0.0,0.0,0.0,0.0,0.0,0.0,0.0,0.0,-0.07,0.02,0.14,0.0,0.0,0.0,0.0,0.0,0.0,0.0,0.0,0.0
1490728695049040079,21387,1490728695049040079,,-0.0365600585938,0.0115966796875,-0.433654785156,0.900268554688,0.0,0.0,0.0,0.0,0.0,0.0,0.0,0.0,0.0,0.0,3.87851111111e-05,1.93925555556e-05,0.0,0.0,0.0,0.0,0.0,0.0,0.0,0.0,0.0,-0.07,0.01,0.24,0.0,0.0,0.0,0.0,0.0,0.0,0.0,0.0,0.0
1490728695080830097,21388,1490728695080830097,,-0.0365600585938,0.0115966796875,-0.433654785156,0.900268554688,0.0,0.0,0.0,0.0,0.0,0.0,0.0,0.0,0.0,-9.69627777778e-05,-7.75702222222e-05,0.0,0.0,0.0,0.0,0.0,0.0,0.0,0.0,0.0,0.0,0.0,-0.1,0.14,0.0,0.0,0.0,0.0,0.0,0.0,0.0,0.0,0.0
1490728695104387998,21389,1490728695104387998,,-0.0365600585938,0.0115966796875,-0.433654785156,0.900268554688,0.0,0.0,0.0,0.0,0.0,0.0,0.0,0.0,0.0,-3.87851111111e-05,-5.81776666667e-05,1.93925555556e-05,0.0,0.0,0.0,0.0,0.0,0.0,0.0,0.0,0.0,1.31,-0.11,0.17,0.0,0.0,0.0,0.0,0.0,0.0,0.0,0.0,0.0
1490728695129862070,21390,1490728695129862070,,-0.0365600585938,0.0115966796875,-0.433654785156,0.900268554688,0.0,0.0,0.0,0.0,0.0,0.0,0.0,0.0,0.0,0.00259860244444,9.69627777778e-05,0.0,0.0,0.0,0.0,0.0,0.0,0.0,0.0,0.0,0.0,-0.03,-0.02,0.14,0.0,0.0,0.0,0.0,0.0,0.0,0.0,0.0,0.0
1490728695163639068,21391,1490728695163639068,,-0.0365600585938,0.0115966796875,-0.433654785156,0.900268554688,0.0,0.0,0.0,0.0,0.0,0.0,0.0,0.0,0.0,3.87851111111e-05,7.75702222222e-05,-5.81776666667e-05,0.0,0.0,0.0,0.0,0.0,0.0,0.0,0.0,0.0,-0.11,0.08,0.27,0.0,0.0,0.0,0.0,0.0,0.0,0.0,0.0,0.0
1490728695203438043,21392,1490728695203438043,,-0.0365600585938,0.0115966796875,-0.433654785156,0.900268554688,0.0,0.0,0.0,0.0,0.0,0.0,0.0,0.0,0.0,-9.69627777778e-05,-0.000116355333333,3.87851111111e-05,0.0,0.0,0.0,0.0,0.0,0.0,0.0,0.0,0.0,1.32,-0.1,0.19,0.0,0.0,0.0,0.0,0.0,0.0,0.0,0.0,0.0
1490728695229527950,21393,1490728695229527950,,-0.0365600585938,0.0115966796875,-0.433654785156,0.900268554688,0.0,0.0,0.0,0.0,0.0,0.0,0.0,0.0,0.0,0.00259860244444,3.87851111111e-05,1.93925555556e-05,0.0,0.0,0.0,0.0,0.0,0.0,0.0,0.0,0.0,1.28,-0.08,1.42,0.0,0.0,0.0,0.0,0.0,0.0,0.0,0.0,0.0
1490728695266714096,21394,1490728695266714096,,-0.0365600585938,0.0115966796875,-0.433654785156,0.900268554688,0.0,0.0,0.0,0.0,0.0,0.0,0.0,0.0,0.0,-1.93925555556e-05,5.81776666667e-05,0.0,0.0,0.0,0.0,0.0,0.0,0.0,0.0,0.0,0.0,-0.12,0.02,0.15,0.0,0.0,0.0,0.0,0.0,0.0,0.0,0.0,0.0
1490728695307282924,21395,1490728695307282924,,-0.0365600585938,0.0115966796875,-0.433654785156,0.900268554688,0.0,0.0,0.0,0.0,0.0,0.0,0.0,0.0,0.0,-9.69627777778e-05,-0.000135747888889,0.0,0.0,0.0,0.0,0.0,0.0,0.0,0.0,0.0,0.0,1.28,-0.05,0.19,0.0,0.0,0.0,0.0,0.0,0.0,0.0,0.0,0.0
1490728695350790977,21396,1490728695350790977,,-0.0365600585938,0.0115966796875,-0.433654785156,0.900268554688,0.0,0.0,0.0,0.0,0.0,0.0,0.0,0.0,0.0,0.00248224711111,9.69627777778e-05,0.0,0.0,0.0,0.0,0.0,0.0,0.0,0.0,0.0,0.0,-0.05,-0.06,0.21,0.0,0.0,0.0,0.0,0.0,0.0,0.0,0.0,0.0
1490728695386606931,21397,1490728695386606931,,-0.0365600585938,0.0115966796875,-0.433654785156,0.900268554688,0.0,0.0,0.0,0.0,0.0,0.0,0.0,0.0,0.0,0.00252103222222,-5.81776666667e-05,-1.93925555556e-05,0.0,0.0,0.0,0.0,0.0,0.0,0.0,0.0,0.0,-0.05,-0.02,0.19,0.0,0.0,0.0,0.0,0.0,0.0,0.0,0.0,0.0
1490728695419406890,21398,1490728695419406890,,-0.0365600585938,0.0115966796875,-0.433654785156,0.900268554688,0.0,0.0,0.0,0.0,0.0,0.0,0.0,0.0,0.0,0.00248224711111,5.81776666667e-05,0.0,0.0,0.0,0.0,0.0,0.0,0.0,0.0,0.0,0.0,-0.01,0.02,0.12,0.0,0.0,0.0,0.0,0.0,0.0,0.0,0.0,0.0
1490728695444550991,21399,1490728695444550991,,-0.0365600585938,0.0115966796875,-0.433654785156,0.900268554688,0.0,0.0,0.0,0.0,0.0,0.0,0.0,0.0,0.0,-9.69627777778e-05,1.93925555556e-05,1.93925555556e-05,0.0,0.0,0.0,0.0,0.0,0.0,0.0,0.0,0.0,-0.05,-0.07,0.24,0.0,0.0,0.0,0.0,0.0,0.0,0.0,0.0,0.0
1490728695473381042,21400,1490728695473381042,,-0.0365600585938,0.0115966796875,-0.433654785156,0.900268554688,0.0,0.0,0.0,0.0,0.0,0.0,0.0,0.0,0.0,-9.69627777778e-05,0.0,-1.93925555556e-05,0.0,0.0,0.0,0.0,0.0,0.0,0.0,0.0,0.0,-0.01,-0.13,0.13,0.0,0.0,0.0,0.0,0.0,0.0,0.0,0.0,0.0
1490728695511203050,21401,1490728695511203050,,-0.0365600585938,0.0115966796875,-0.433654785156,0.900268554688,0.0,0.0,0.0,0.0,0.0,0.0,0.0,0.0,0.0,0.00267617266667,3.87851111111e-05,0.0,0.0,0.0,0.0,0.0,0.0,0.0,0.0,0.0,0.0,-0.05,0.03,0.11,0.0,0.0,0.0,0.0,0.0,0.0,0.0,0.0,0.0
1490728695545512914,21402,1490728695545512914,,-0.0365600585938,0.0115966796875,-0.433654785156,0.900268554688,0.0,0.0,0.0,0.0,0.0,0.0,0.0,0.0,0.0,-3.87851111111e-05,5.81776666667e-05,0.0,0.0,0.0,0.0,0.0,0.0,0.0,0.0,0.0,0.0,-0.07,0.01,0.28,0.0,0.0,0.0,0.0,0.0,0.0,0.0,0.0,0.0
1490728695575884103,21403,1490728695575884103,,-0.0365600585938,0.0115966796875,-0.433654785156,0.900268554688,0.0,0.0,0.0,0.0,0.0,0.0,0.0,0.0,0.0,-0.000174533,-9.69627777778e-05,0.0,0.0,0.0,0.0,0.0,0.0,0.0,0.0,0.0,0.0,1.28,-0.08,0.11,0.0,0.0,0.0,0.0,0.0,0.0,0.0,0.0,0.0
1490728695599323987,21404,1490728695599323987,,-0.0365600585938,0.0115966796875,-0.433654785156,0.900268554688,0.0,0.0,0.0,0.0,0.0,0.0,0.0,0.0,0.0,-3.87851111111e-05,-1.93925555556e-05,1.93925555556e-05,0.0,0.0,0.0,0.0,0.0,0.0,0.0,0.0,0.0,0.0,-0.12,0.18,0.0,0.0,0.0,0.0,0.0,0.0,0.0,0.0,0.0
1490728695636797904,21405,1490728695636797904,,-0.0365600585938,0.0115966796875,-0.433654785156,0.900268554688,0.0,0.0,0.0,0.0,0.0,0.0,0.0,0.0,0.0,0.00259860244444,9.69627777778e-05,1.93925555556e-05,0.0,0.0,0.0,0.0,0.0,0.0,0.0,0.0,0.0,-0.08,0.0,0.22,0.0,0.0,0.0,0.0,0.0,0.0,0.0,0.0,0.0
1490728695662611007,21406,1490728695662611007,,-0.0365600585938,0.0115966796875,-0.433654785156,0.900268554688,0.0,0.0,0.0,0.0,0.0,0.0,0.0,0.0,0.0,0.0,-9.69627777778e-05,5.81776666667e-05,0.0,0.0,0.0,0.0,0.0,0.0,0.0,0.0,0.0,-0.06,0.0,0.24,0.0,0.0,0.0,0.0,0.0,0.0,0.0,0.0,0.0
1490728695695605993,21407,1490728695695605993,,-0.0365600585938,0.0115966796875,-0.433654785156,0.900268554688,0.0,0.0,0.0,0.0,0.0,0.0,0.0,0.0,0.0,-3.87851111111e-05,-1.93925555556e-05,1.93925555556e-05,0.0,0.0,0.0,0.0,0.0,0.0,0.0,0.0,0.0,-0.03,-0.02,0.23,0.0,0.0,0.0,0.0,0.0,0.0,0.0,0.0,0.0
1490728695725251913,21408,1490728695725251913,,-0.0365600585938,0.0115966796875,-0.433654785156,0.900268554688,0.0,0.0,0.0,0.0,0.0,0.0,0.0,0.0,0.0,-3.87851111111e-05,9.69627777778e-05,-1.93925555556e-05,0.0,0.0,0.0,0.0,0.0,0.0,0.0,0.0,0.0,-0.07,-0.05,0.14,0.0,0.0,0.0,0.0,0.0,0.0,0.0,0.0,0.0
1490728695755942106,21409,1490728695755942106,,-0.0365600585938,0.0115966796875,-0.433654785156,0.900268554688,0.0,0.0,0.0,0.0,0.0,0.0,0.0,0.0,0.0,-0.000116355333333,-9.69627777778e-05,0.0,0.0,0.0,0.0,0.0,0.0,0.0,0.0,0.0,0.0,1.28,-0.15,0.15,0.0,0.0,0.0,0.0,0.0,0.0,0.0,0.0,0.0
1490728695788337945,21410,1490728695788337945,,-0.0365600585938,0.0115966796875,-0.433654785156,0.900268554688,0.0,0.0,0.0,0.0,0.0,0.0,0.0,0.0,0.0,0.00265678011111,7.75702222222e-05,1.93925555556e-05,0.0,0.0,0.0,0.0,0.0,0.0,0.0,0.0,0.0,-0.04,0.06,0.21,0.0,0.0,0.0,0.0,0.0,0.0,0.0,0.0,0.0
1490728695839720010,21411,1490728695839720010,,-0.0365600585938,0.0115966796875,-0.433654785156,0.900268554688,0.0,0.0,0.0,0.0,0.0,0.0,0.0,0.0,0.0,-0.000252103222222,-0.000116355333333,7.75702222222e-05,0.0,0.0,0.0,0.0,0.0,0.0,0.0,0.0,0.0,-0.05,-0.1,0.18,0.0,0.0,0.0,0.0,0.0,0.0,0.0,0.0,0.0
1490728695890872001,21412,1490728695890872001,,-0.0366821289062,0.0116577148438,-0.433654785156,0.900268554688,0.0,0.0,0.0,0.0,0.0,0.0,0.0,0.0,0.0,0.00257920988889,0.000155140444444,-5.81776666667e-05,0.0,0.0,0.0,0.0,0.0,0.0,0.0,0.0,0.0,-0.06,0.0,0.26,0.0,0.0,0.0,0.0,0.0,0.0,0.0,0.0,0.0
1490728695933499097,21413,1490728695933499097,,-0.0366821289062,0.0116577148438,-0.433654785156,0.900268554688,0.0,0.0,0.0,0.0,0.0,0.0,0.0,0.0,0.0,0.00248224711111,-1.93925555556e-05,1.93925555556e-05,0.0,0.0,0.0,0.0,0.0,0.0,0.0,0.0,0.0,-0.09,0.0,0.2,0.0,0.0,0.0,0.0,0.0,0.0,0.0,0.0,0.0
1490728695977760076,21414,1490728695977760076,,-0.0366821289062,0.0116577148438,-0.433654785156,0.900268554688,0.0,0.0,0.0,0.0,0.0,0.0,0.0,0.0,0.0,-7.75702222222e-05,-1.93925555556e-05,-3.87851111111e-05,0.0,0.0,0.0,0.0,0.0,0.0,0.0,0.0,0.0,1.28,-0.1,0.18,0.0,0.0,0.0,0.0,0.0,0.0,0.0,0.0,0.0
1490728696041851043,21415,1490728696041851043,,-0.0366821289062,0.0116577148438,-0.433654785156,0.900268554688,0.0,0.0,0.0,0.0,0.0,0.0,0.0,0.0,0.0,0.002617995,9.69627777778e-05,0.0,0.0,0.0,0.0,0.0,0.0,0.0,0.0,0.0,0.0,-0.09,0.05,0.25,0.0,0.0,0.0,0.0,0.0,0.0,0.0,0.0,0.0
1490728696078394889,21416,1490728696078394889,,-0.0366821289062,0.0116577148438,-0.433654785156,0.900268554688,0.0,0.0,0.0,0.0,0.0,0.0,0.0,0.0,0.0,-0.000116355333333,-9.69627777778e-05,1.93925555556e-05,0.0,0.0,0.0,0.0,0.0,0.0,0.0,0.0,0.0,1.3,-0.08,0.23,0.0,0.0,0.0,0.0,0.0,0.0,0.0,0.0,0.0
1490728696148056030,21417,1490728696148056030,,-0.0366821289062,0.0116577148438,-0.433654785156,0.900268554688,0.0,0.0,0.0,0.0,0.0,0.0,0.0,0.0,0.0,0.00254042477778,5.81776666667e-05,1.93925555556e-05,0.0,0.0,0.0,0.0,0.0,0.0,0.0,0.0,0.0,-0.05,-0.12,0.17,0.0,0.0,0.0,0.0,0.0,0.0,0.0,0.0,0.0
1490728696190049886,21418,1490728696190049886,,-0.0366821289062,0.0116577148438,-0.433654785156,0.900268554688,0.0,0.0,0.0,0.0,0.0,0.0,0.0,0.0,0.0,-3.87851111111e-05,-7.75702222222e-05,0.0,0.0,0.0,0.0,0.0,0.0,0.0,0.0,0.0,0.0,-0.1,0.06,0.21,0.0,0.0,0.0,0.0,0.0,0.0,0.0,0.0,0.0
1490728696216655015,21419,1490728696216655015,,-0.0366821289062,0.0116577148438,-0.433654785156,0.900268554688,0.0,0.0,0.0,0.0,0.0,0.0,0.0,0.0,0.0,-9.69627777778e-05,-7.75702222222e-05,1.93925555556e-05,0.0,0.0,0.0,0.0,0.0,0.0,0.0,0.0,0.0,1.33,-0.02,0.1,0.0,0.0,0.0,0.0,0.0,0.0,0.0,0.0,0.0
1490728696241033077,21420,1490728696241033077,,-0.0366821289062,0.0116577148438,-0.433654785156,0.900268554688,0.0,0.0,0.0,0.0,0.0,0.0,0.0,0.0,0.0,-5.81776666667e-05,1.93925555556e-05,3.87851111111e-05,0.0,0.0,0.0,0.0,0.0,0.0,0.0,0.0,0.0,1.28,-0.07,0.23,0.0,0.0,0.0,0.0,0.0,0.0,0.0,0.0,0.0
1490728696267615079,21421,1490728696267615079,,-0.0366821289062,0.0116577148438,-0.433654785156,0.900268554688,0.0,0.0,0.0,0.0,0.0,0.0,0.0,0.0,0.0,0.00248224711111,-1.93925555556e-05,0.0,0.0,0.0,0.0,0.0,0.0,0.0,0.0,0.0,0.0,-0.07,-0.09,0.2,0.0,0.0,0.0,0.0,0.0,0.0,0.0,0.0,0.0
1490728696317899942,21422,1490728696317899942,,-0.0366821289062,0.0116577148438,-0.433654785156,0.900268554688,0.0,0.0,0.0,0.0,0.0,0.0,0.0,0.0,0.0,0.000135747888889,0.0,3.87851111111e-05,0.0,0.0,0.0,0.0,0.0,0.0,0.0,0.0,0.0,1.29,0.09,0.18,0.0,0.0,0.0,0.0,0.0,0.0,0.0,0.0,0.0
1490728696372131109,21423,1490728696372131109,,-0.0366821289062,0.0116577148438,-0.433654785156,0.900268554688,0.0,0.0,0.0,0.0,0.0,0.0,0.0,0.0,0.0,-0.000174533,5.81776666667e-05,-1.93925555556e-05,0.0,0.0,0.0,0.0,0.0,0.0,0.0,0.0,0.0,-0.03,-0.16,0.17,0.0,0.0,0.0,0.0,0.0,0.0,0.0,0.0,0.0
1490728696429588079,21424,1490728696429588079,,-0.0368041992188,0.01171875,-0.433654785156,0.900268554688,0.0,0.0,0.0,0.0,0.0,0.0,0.0,0.0,0.0,0.002617995,-5.81776666667e-05,-1.93925555556e-05,0.0,0.0,0.0,0.0,0.0,0.0,0.0,0.0,0.0,1.28,-0.08,0.13,0.0,0.0,0.0,0.0,0.0,0.0,0.0,0.0,0.0
1490728696462517023,21425,1490728696462517023,,-0.0366821289062,0.0116577148438,-0.433654785156,0.900268554688,0.0,0.0,0.0,0.0,0.0,0.0,0.0,0.0,0.0,0.00271495777778,0.000135747888889,-1.93925555556e-05,0.0,0.0,0.0,0.0,0.0,0.0,0.0,0.0,0.0,-0.11,0.15,0.23,0.0,0.0,0.0,0.0,0.0,0.0,0.0,0.0,0.0
1490728696502662897,21426,1490728696502662897,,-0.0367431640625,0.01171875,-0.433654785156,0.900268554688,0.0,0.0,0.0,0.0,0.0,0.0,0.0,0.0,0.0,-0.000271495777778,-9.69627777778e-05,-1.93925555556e-05,0.0,0.0,0.0,0.0,0.0,0.0,0.0,0.0,0.0,-0.01,-0.07,0.22,0.0,0.0,0.0,0.0,0.0,0.0,0.0,0.0,0.0
1490728696537404060,21427,1490728696537404060,,-0.036865234375,0.0117797851562,-0.433654785156,0.900268554688,0.0,0.0,0.0,0.0,0.0,0.0,0.0,0.0,0.0,-0.000135747888889,-7.75702222222e-05,1.93925555556e-05,0.0,0.0,0.0,0.0,0.0,0.0,0.0,0.0,0.0,1.3,-1.46,0.15,0.0,0.0,0.0,0.0,0.0,0.0,0.0,0.0,0.0
1490728696563709974,21428,1490728696563709974,,-0.036865234375,0.0117797851562,-0.433654785156,0.900268554688,0.0,0.0,0.0,0.0,0.0,0.0,0.0,0.0,0.0,0.00265678011111,0.000174533,-1.93925555556e-05,0.0,0.0,0.0,0.0,0.0,0.0,0.0,0.0,0.0,-0.06,-0.07,0.21,0.0,0.0,0.0,0.0,0.0,0.0,0.0,0.0,0.0
1490728696608463048,21429,1490728696608463048,,-0.0367431640625,0.01171875,-0.433654785156,0.900268554688,0.0,0.0,0.0,0.0,0.0,0.0,0.0,0.0,0.0,0.00257920988889,-3.87851111111e-05,-1.93925555556e-05,0.0,0.0,0.0,0.0,0.0,0.0,0.0,0.0,0.0,-0.03,0.14,0.26,0.0,0.0,0.0,0.0,0.0,0.0,0.0,0.0,0.0
1490728696641880989,21430,1490728696641880989,,-0.0369262695312,0.01171875,-0.433654785156,0.900268554688,0.0,0.0,0.0,0.0,0.0,0.0,0.0,0.0,0.0,-0.000271495777778,-0.000116355333333,3.87851111111e-05,0.0,0.0,0.0,0.0,0.0,0.0,0.0,0.0,0.0,1.35,-0.11,0.15,0.0,0.0,0.0,0.0,0.0,0.0,0.0,0.0,0.0
1490728696675546884,21431,1490728696675546884,,-0.0369873046875,0.0117797851562,-0.433654785156,0.900268554688,0.0,0.0,0.0,0.0,0.0,0.0,0.0,0.0,0.0,5.81776666667e-05,0.000116355333333,0.0,0.0,0.0,0.0,0.0,0.0,0.0,0.0,0.0,0.0,-0.07,-0.18,0.07,0.0,0.0,0.0,0.0,0.0,0.0,0.0,0.0,0.0
1490728696699412107,21432,1490728696699412107,,-0.0369262695312,0.0117797851562,-0.433654785156,0.900268554688,0.0,0.0,0.0,0.0,0.0,0.0,0.0,0.0,0.0,0.00269556522222,7.75702222222e-05,0.0,0.0,0.0,0.0,0.0,0.0,0.0,0.0,0.0,0.0,-0.12,0.07,0.27,0.0,0.0,0.0,0.0,0.0,0.0,0.0,0.0,0.0
1490728696721432924,21433,1490728696721432924,,-0.036865234375,0.0117797851562,-0.433654785156,0.900268554688,0.0,0.0,0.0,0.0,0.0,0.0,0.0,0.0,0.0,0.00248224711111,-0.000174533,-1.93925555556e-05,0.0,0.0,0.0,0.0,0.0,0.0,0.0,0.0,0.0,-0.03,0.13,0.15,0.0,0.0,0.0,0.0,0.0,0.0,0.0,0.0,0.0
1490728696745719909,21434,1490728696745719909,,-0.036865234375,0.0117797851562,-0.433654785156,0.900268554688,0.0,0.0,0.0,0.0,0.0,0.0,0.0,0.0,0.0,-7.75702222222e-05,-9.69627777778e-05,3.87851111111e-05,0.0,0.0,0.0,0.0,0.0,0.0,0.0,0.0,0.0,1.34,0.04,0.18,0.0,0.0,0.0,0.0,0.0,0.0,0.0,0.0,0.0
1490728696766931056,21435,1490728696766931056,,-0.036865234375,0.0117797851562,-0.433654785156,0.900268554688,0.0,0.0,0.0,0.0,0.0,0.0,0.0,0.0,0.0,-0.000155140444444,0.000155140444444,0.0,0.0,0.0,0.0,0.0,0.0,0.0,0.0,0.0,0.0,-0.06,-0.12,0.12,0.0,0.0,0.0,0.0,0.0,0.0,0.0,0.0,0.0
1490728696798441886,21436,1490728696798441886,,-0.036865234375,0.0117797851562,-0.433654785156,0.900268554688,0.0,0.0,0.0,0.0,0.0,0.0,0.0,0.0,0.0,-1.93925555556e-05,-7.75702222222e-05,0.0,0.0,0.0,0.0,0.0,0.0,0.0,0.0,0.0,0.0,-0.04,-0.12,0.19,0.0,0.0,0.0,0.0,0.0,0.0,0.0,0.0,0.0
1490728696825613021,21437,1490728696825613021,,-0.036865234375,0.0117797851562,-0.433654785156,0.900268554688,0.0,0.0,0.0,0.0,0.0,0.0,0.0,0.0,0.0,0.00257920988889,-9.69627777778e-05,0.0,0.0,0.0,0.0,0.0,0.0,0.0,0.0,0.0,0.0,-0.02,-0.01,0.09,0.0,0.0,0.0,0.0,0.0,0.0,0.0,0.0,0.0
1490728696854831933,21438,1490728696854831933,,-0.0368041992188,0.01171875,-0.433654785156,0.900268554688,0.0,0.0,0.0,0.0,0.0,0.0,0.0,0.0,0.0,0.00259860244444,0.000155140444444,0.0,0.0,0.0,0.0,0.0,0.0,0.0,0.0,0.0,0.0,-0.06,0.12,0.25,0.0,0.0,0.0,0.0,0.0,0.0,0.0,0.0,0.0
1490728696894434928,21439,1490728696894434928,,-0.0369262695312,0.0117797851562,-0.433654785156,0.900268554688,0.0,0.0,0.0,0.0,0.0,0.0,0.0,0.0,0.0,-0.000232710666667,-9.69627777778e-05,-1.93925555556e-05,0.0,0.0,0.0,0.0,0.0,0.0,0.0,0.0,0.0,-0.01,-0.1,0.2,0.0,0.0,0.0,0.0,0.0,0.0,0.0,0.0,0.0
1490728696938059091,21440,1490728696938059091,,-0.0369873046875,0.0117797851562,-0.433654785156,0.900268554688,0.0,0.0,0.0,0.0,0.0,0.0,0.0,0.0,0.0,0.00257920988889,3.87851111111e-05,-1.93925555556e-05,0.0,0.0,0.0,0.0,0.0,0.0,0.0,0.0,0.0,-0.03,-0.06,0.18,0.0,0.0,0.0,0.0,0.0,0.0,0.0,0.0,0.0
1490728696984625101,21441,1490728696984625101,,-0.0369262695312,0.0119018554688,-0.433654785156,0.900268554688,0.0,0.0,0.0,0.0,0.0,0.0,0.0,0.0,0.0,-0.000116355333333,-9.69627777778e-05,0.0,0.0,0.0,0.0,0.0,0.0,0.0,0.0,0.0,0.0,1.28,0.01,0.2,0.0,0.0,0.0,0.0,0.0,0.0,0.0,0.0,0.0
1490728697047497034,21442,1490728697047497034,,-0.0369262695312,0.0119018554688,-0.433654785156,0.900268554688,0.0,0.0,0.0,0.0,0.0,0.0,0.0,0.0,0.0,-5.81776666667e-05,0.000116355333333,-3.87851111111e-05,0.0,0.0,0.0,0.0,0.0,0.0,0.0,0.0,0.0,1.28,-0.14,0.22,0.0,0.0,0.0,0.0,0.0,0.0,0.0,0.0,0.0
1490728697083077907,21443,1490728697083077907,,-0.0369262695312,0.0119018554688,-0.433654785156,0.900268554688,0.0,0.0,0.0,0.0,0.0,0.0,0.0,0.0,0.0,0.00255981733333,1.93925555556e-05,1.93925555556e-05,0.0,0.0,0.0,0.0,0.0,0.0,0.0,0.0,0.0,-0.13,-0.01,0.19,0.0,0.0,0.0,0.0,0.0,0.0,0.0,0.0,0.0
1490728697120493888,21444,1490728697120493888,,-0.0369262695312,0.0119018554688,-0.433654785156,0.900268554688,0.0,0.0,0.0,0.0,0.0,0.0,0.0,0.0,0.0,0.00252103222222,-5.81776666667e-05,0.0,0.0,0.0,0.0,0.0,0.0,0.0,0.0,0.0,0.0,-0.02,0.11,0.15,0.0,0.0,0.0,0.0,0.0,0.0,0.0,0.0,0.0
1490728697170190095,21445,1490728697170190095,,-0.0370483398438,0.0119018554688,-0.433654785156,0.900207519531,0.0,0.0,0.0,0.0,0.0,0.0,0.0,0.0,0.0,-0.000135747888889,1.93925555556e-05,-1.93925555556e-05,0.0,0.0,0.0,0.0,0.0,0.0,0.0,0.0,0.0,-0.02,-0.18,0.11,0.0,0.0,0.0,0.0,0.0,0.0,0.0,0.0,0.0
